# scan = 132
# date = 10/28/2024
# time = 11:36:58 AM
# proposal = 34735
# experiment = Magnons and paramagnon coupling in MnTe
# experiment_number = 823
# command = scan h 1.08 k 0.0 l 0.92 e 31.4 1.0 0.2 ef 14.7 preset mcu 30
# builtin_command = scan h 1.08 k 0.0 l 0.92 e 31.4 1.0 0.2 ef 14.7 preset mcu 30
# users = Benjamin Frandsen, Songxue Chi, George Yumnam, Huibo Cao, Michael Manley, Raphael Hermann, Eleanor Clements
# local_contact = Eleanor Clements
# scan_title = Scans H0L = (1.0, 0, 1.0) to (1.5, 0, 0.5) - Transverse at (1.08, 0.0, 0.92) - E = 31.4 to 1 mev
# monochromator = PG002
# analyzer = Pg002
# sense = -+-
# collimation = 48-40-40-120
# samplename = MnTe
# sampletype = crystal
# samplemosaic = 30.000000
# latticeconstants = 4.113532,4.113532,6.656209,90.000000,90.000000,120.000000
# ubmatrix = 0.008885,0.000200,-0.150137,0.280567,0.140284,0.004756,-0.000155,-0.243141,0.002621
# mode = 0
# plane_normal = 0.017452,-0.000000,0.999848
# ubconf = UB25Oct2024_84509PM.ini
# preset_type = normal 
# preset_channel = mcu
# preset_value = 30.000000
# def_x = e
# def_y = detector
# col_headers = 
#   Pt.          h          k          l          e         ef       time   detector    monitor        mcu focal_length         m1         m2   mcrystal       marc     mtrans     mfocus         s1         s2        sgl        sgu        bbb        bbl        bbr        bbt        bab        bal        bar        bat        stl        stu         a1         a2          q         ei        vti     sample       temp     temp_2
      1     1.0800     0.0000     0.9202    31.4027    14.7000     37.833      5.000 125071.000     30.000    37.7197   -20.0773   -22.9007   120.0962    -0.1480    -3.0001   -63.3065   148.8915     6.6014    -0.9995     0.0010    14.0000     4.0000     4.0000     2.0000    16.0000     4.0000     6.0000    10.0000    -2.0020     2.0025   159.4167   -41.1662     2.0936    46.1027     4.9945     5.0003     5.0000     5.000
      2     1.0801     0.0000     0.9199    31.2011    14.7000     37.536      7.000 125071.000     30.000    37.8018   -20.0773   -22.9516   120.0962    -0.1480    -3.0001   -63.1557   147.8770     7.4004    -0.9995     0.0010    14.0000     4.0000     4.0000     2.0000    16.0000     4.0000     6.0000    10.0000    -2.0020     2.0025   159.4167   -41.1662     2.0936    45.9011     4.9966     5.0005     5.0000     5.000
      3     1.0800     0.0000     0.9200    30.9992    14.7000     36.983      5.000 125071.000     30.000    37.8844   -20.0773   -23.0030   120.0962    -0.1480    -3.0001   -63.0045   146.9584     8.1160    -0.9995     0.0010    14.0000     4.0000     4.0000     2.0000    16.0000     4.0000     6.0000    10.0000    -2.0020     2.0025   159.4167   -41.1662     2.0934    45.6992     4.9956     5.0004     5.0000     5.000
      4     1.0800     0.0000     0.9199    30.7996    14.7000     36.911      2.000 125071.000     30.000    37.9676   -20.0773   -23.0541   120.0962    -0.1480    -3.0001   -62.8531   146.1124     8.7782    -0.9995     0.0010    14.0000     4.0000     4.0000     2.0000    16.0000     4.0000     6.0000    10.0000    -2.0020     2.0025   159.4167   -41.1662     2.0935    45.4996     4.9968     4.9971     5.0000     5.000
      5     1.0800     0.0000     0.9199    30.5998    14.7000     36.582      3.000 125071.000     30.000    38.0513   -20.0773   -23.1056   120.0962    -0.1480    -3.0001   -62.7014   145.3229     9.3937    -0.9995     0.0010    14.0000     4.0000     4.0000     2.0000    16.0000     4.0000     6.0000    10.0000    -2.0020     2.0025   159.4167   -41.1662     2.0935    45.2998     5.0008     4.9994     5.0000     5.000
      6     1.0800     0.0000     0.9199    30.4002    14.7000     36.316      5.000 125071.000     30.000    38.1356   -20.0773   -23.1573   120.0962    -0.1480    -3.0001   -62.5495   144.5799     9.9721    -0.9995     0.0010    14.0000     4.0000     4.0000     2.0000    16.0000     4.0000     6.0000    10.0000    -2.0020     2.0025   159.4167   -41.1662     2.0935    45.1002     4.9963     4.9973     5.0000     5.000
      7     1.0800     0.0000     0.9200    30.2003    14.7000     35.947      4.000 125071.000     30.000    38.2204   -20.0773   -23.2096   120.0962    -0.1480    -3.0001   -62.3973   143.8754    10.5172    -0.9995     0.0010    14.0000     4.0000     4.0000     2.0000    16.0000     4.0000     6.0000    10.0000    -2.0020     2.0025   159.4167   -41.1662     2.0935    44.9003     4.9971     4.9978     5.0000     5.000
      8     1.0800     0.0000     0.9199    30.0004    14.7000     35.721      3.000 125071.000     30.000    38.3059   -20.0773   -23.2621   120.0962    -0.1480    -3.0001   -62.2448   143.2038    11.0427    -0.9995     0.0010    14.0000     4.0000     4.0000     2.0000    16.0000     4.0000     6.0000    10.0000    -2.0020     2.0025   159.4167   -41.1662     2.0935    44.7004     4.9941     4.9997     5.0000     5.000
      9     1.0800     0.0000     0.9200    29.7992    14.7000     35.650      2.000 125071.000     30.000    38.3918   -20.0773   -23.3154   120.0962    -0.1480    -3.0001   -62.0920   142.5601    11.5404    -0.9995     0.0010    14.0000     4.0000     4.0000     2.0000    16.0000     4.0000     6.0000    10.0000    -2.0020     2.0025   159.4167   -41.1662     2.0934    44.4992     5.0026     5.0023     5.0000     5.000
     10     1.0800     0.0000     0.9200    29.6011    14.7000     35.647      8.000 125071.000     30.000    38.4784   -20.0773   -23.3682   120.0962    -0.1480    -3.0001   -61.9390   141.9411    12.0209    -0.9995     0.0010    14.0000     4.0000     4.0000     2.0000    16.0000     4.0000     6.0000    10.0000    -2.0020     2.0025   159.4167   -41.1662     2.0936    44.3011     5.0014     4.9973     5.0000     5.000
     11     1.0800     0.0000     0.9200    29.3997    14.7000     35.653      6.000 125071.000     30.000    38.5656   -20.0773   -23.4222   120.0962    -0.1480    -3.0001   -61.7856   141.3444    12.4821    -0.9995     0.0010    14.0000     4.0000     4.0000     2.0000    16.0000     4.0000     6.0000    10.0000    -2.0020     2.0025   159.4167   -41.1662     2.0935    44.0997     5.0053     4.9951     5.0000     5.000
     12     1.0800     0.0000     0.9200    29.1999    14.7000     35.505      9.000 125071.000     30.000    38.6533   -20.0773   -23.4762   120.0962    -0.1480    -3.0001   -61.6320   140.7669    12.9280    -0.9995     0.0010    14.0000     4.0000     4.0000     2.0000    16.0000     4.0000     6.0000    10.0000    -2.0020     2.0025   159.4167   -41.1662     2.0934    43.8999     5.0040     4.9995     5.0000     5.000
     13     1.0800     0.0000     0.9200    28.9998    14.7000     35.382      3.000 125071.000     30.000    38.7417   -20.0773   -23.5307   120.0962    -0.1480    -3.0001   -61.4781   140.2066    13.3628    -0.9995     0.0010    14.0000     4.0000     4.0000     2.0000    16.0000     4.0000     6.0000    10.0000    -2.0020     2.0025   159.4167   -41.1662     2.0935    43.6998     4.9945     5.0007     5.0000     5.000
     14     1.0800     0.0000     0.9200    28.8006    14.7000     35.287     11.000 125071.000     30.000    38.8306   -20.0773   -23.5853   120.0962    -0.1480    -3.0001   -61.3240   139.6625    13.7823    -0.9995     0.0010    14.0000     4.0000     4.0000     2.0000    16.0000     4.0000     6.0000    10.0000    -2.0020     2.0025   159.4167   -41.1662     2.0935    43.5006     4.9947     5.0025     5.0000     5.000
     15     1.0800     0.0000     0.9199    28.5993    14.7000     35.308     11.000 125071.000     30.000    38.9202   -20.0773   -23.6408   120.0962    -0.1480    -3.0001   -61.1695   139.1324    14.1918    -0.9995     0.0010    14.0000     4.0000     4.0000     2.0000    16.0000     4.0000     6.0000    10.0000    -2.0020     2.0025   159.4167   -41.1662     2.0935    43.2993     5.0041     4.9944     5.0000     5.000
     16     1.0800     0.0000     0.9200    28.4006    14.7000     35.324      7.000 125071.000     30.000    39.0104   -20.0773   -23.6960   120.0962    -0.1480    -3.0001   -61.0148   138.6153    14.5902    -0.9995     0.0010    14.0000     4.0000     4.0000     2.0000    16.0000     4.0000     6.0000    10.0000    -2.0020     2.0025   159.4167   -41.1662     2.0936    43.1006     4.9975     4.9984     5.0000     5.000
     17     1.0800     0.0000     0.9199    28.1996    14.7000     35.060      8.000 125071.000     30.000    39.1012   -20.0773   -23.7523   120.0962    -0.1480    -3.0001   -60.8597   138.1103    14.9782    -0.9995     0.0010    14.0000     4.0000     4.0000     2.0000    16.0000     4.0000     6.0000    10.0000    -2.0020     2.0025   159.4167   -41.1662     2.0935    42.8996     4.9930     5.0009     5.0000     5.000
     18     1.0800     0.0000     0.9200    27.9999    14.7000     35.294      5.000 125071.000     30.000    39.1927   -20.0773   -23.8086   120.0962    -0.1480    -3.0001   -60.7044   137.6163    15.3563    -0.9995     0.0010    14.0000     4.0000     4.0000     2.0000    16.0000     4.0000     6.0000    10.0000    -2.0020     2.0025   159.4167   -41.1662     2.0935    42.6999     5.0040     4.9960     5.0000     5.000
     19     1.0799     0.0000     0.9200    27.7998    14.7000     35.022      6.000 125071.000     30.000    39.2848   -20.0773   -23.8654   120.0962    -0.1480    -3.0001   -60.5487   137.1330    15.7246    -0.9995     0.0010    14.0000     4.0000     4.0000     2.0000    16.0000     4.0000     6.0000    10.0000    -2.0020     2.0025   159.4167   -41.1662     2.0934    42.4998     5.0055     4.9973     5.0000     5.000
     20     1.0800     0.0000     0.9201    27.6004    14.7000     34.801      8.000 125071.000     30.000    39.3775   -20.0773   -23.9224   120.0962    -0.1480    -3.0001   -60.3928   136.6587    16.0880    -0.9995     0.0010    14.0000     4.0000     4.0000     2.0000    16.0000     4.0000     6.0000    10.0000    -2.0020     2.0025   159.4167   -41.1662     2.0934    42.3004     5.0032     5.0034     5.0000     5.000
     21     1.0800     0.0000     0.9200    27.3999    14.7000     34.573      7.000 125071.000     30.000    39.4710   -20.0773   -23.9802   120.0962    -0.1480    -3.0001   -60.2366   136.1934    16.4467    -0.9995     0.0010    14.0000     4.0000     4.0000     2.0000    16.0000     4.0000     6.0000    10.0000    -2.0020     2.0025   159.4167   -41.1662     2.0935    42.0999     5.0074     5.0002     5.0000     5.000
     22     1.0800     0.0000     0.9200    27.2003    14.7000     34.226     12.000 125071.000     30.000    39.5651   -20.0773   -24.0380   120.0962    -0.1480    -3.0001   -60.0800   135.7363    16.7971    -0.9995     0.0010    14.0000     4.0000     4.0000     2.0000    16.0000     4.0000     6.0000    10.0000    -2.0020     2.0025   159.4167   -41.1662     2.0935    41.9003     5.0017     4.9989     5.0000     5.000
     23     1.0800     0.0000     0.9200    26.9994    14.7000     34.230     12.000 125071.000     30.000    39.6598   -20.0773   -24.0968   120.0962    -0.1480    -3.0001   -59.9232   135.2873    17.1374    -0.9995     0.0010    14.0000     4.0000     4.0000     2.0000    16.0000     4.0000     6.0000    10.0000    -2.0020     2.0025   159.4167   -41.1662     2.0934    41.6994     4.9971     5.0025     5.0000     5.000
     24     1.0800     0.0000     0.9200    26.8006    14.7000     33.881      9.000 125071.000     30.000    39.7553   -20.0773   -24.1553   120.0962    -0.1480    -3.0001   -59.7660   134.8451    17.4738    -0.9995     0.0010    14.0000     4.0000     4.0000     2.0000    16.0000     4.0000     6.0000    10.0000    -2.0020     2.0025   159.4167   -41.1662     2.0935    41.5006     4.9937     5.0037     5.0000     5.000
     25     1.0800     0.0000     0.9200    26.5996    14.7000     33.495      9.000 125071.000     30.000    39.8514   -20.0773   -24.2149   120.0962    -0.1480    -3.0001   -59.6086   134.4099    17.8067    -0.9995     0.0010    14.0000     4.0000     4.0000     2.0000    16.0000     4.0000     6.0000    10.0000    -2.0020     2.0025   159.4167   -41.1662     2.0935    41.2996     4.9993     4.9984     5.0000     5.000
     26     1.0800     0.0000     0.9200    26.4003    14.7000     33.096     12.000 125071.000     30.000    39.9483   -20.0773   -24.2744   120.0962    -0.1480    -3.0001   -59.4508   133.9809    18.1311    -0.9995     0.0010    14.0000     4.0000     4.0000     2.0000    16.0000     4.0000     6.0000    10.0000    -2.0020     2.0025   159.4167   -41.1662     2.0935    41.1003     4.9977     5.0044     5.0000     5.000
     27     1.0800     0.0000     0.9200    26.2005    14.7000     33.014     10.000 125071.000     30.000    40.0458   -20.0773   -24.3345   120.0962    -0.1480    -3.0001   -59.2927   133.5585    18.4532    -0.9995     0.0010    14.0000     4.0000     4.0000     2.0000    16.0000     4.0000     6.0000    10.0000    -2.0020     2.0025   159.4167   -41.1662     2.0935    40.9005     5.0045     5.0036     5.0000     5.000
     28     1.0800     0.0000     0.9200    25.9996    14.7000     32.686     19.000 125071.000     30.000    40.1441   -20.0773   -24.3954   120.0962    -0.1480    -3.0001   -59.1343   133.1410    18.7695    -0.9995     0.0010    14.0000     4.0000     4.0000     2.0000    16.0000     4.0000     6.0000    10.0000    -2.0020     2.0025   159.4167   -41.1662     2.0935    40.6996     4.9994     4.9987     5.0000     5.000
     29     1.0800     0.0000     0.9199    25.7993    14.7000     32.348     10.000 125071.000     30.000    40.2431   -20.0773   -24.4566   120.0962    -0.1480    -3.0001   -58.9756   132.7299    19.0813    -0.9995     0.0010    14.0000     4.0000     4.0000     2.0000    16.0000     4.0000     6.0000    10.0000    -2.0020     2.0025   159.4167   -41.1662     2.0935    40.4993     5.0069     5.0024     5.0000     5.000
     30     1.0800     0.0000     0.9200    25.6006    14.7000     32.250     10.000 125071.000     30.000    40.3428   -20.0773   -24.5177   120.0962    -0.1480    -3.0001   -58.8166   132.3231    19.3878    -0.9995     0.0010    14.0000     4.0000     4.0000     2.0000    16.0000     4.0000     6.0000    10.0000    -2.0020     2.0025   159.4167   -41.1662     2.0935    40.3006     4.9942     4.9969     5.0000     5.000
     31     1.0800     0.0000     0.9200    25.4003    14.7000     32.149      3.000 125071.000     30.000    40.4433   -20.0773   -24.5799   120.0962    -0.1480    -3.0001   -58.6572   131.9214    19.6922    -0.9995     0.0010    14.0000     4.0000     4.0000     2.0000    16.0000     4.0000     6.0000    10.0000    -2.0020     2.0025   159.4167   -41.1662     2.0935    40.1003     4.9937     4.9978     5.0000     5.000
     32     1.0800     0.0000     0.9200    25.2003    14.7000     31.851     12.000 125071.000     30.000    40.5446   -20.0773   -24.6424   120.0962    -0.1480    -3.0001   -58.4975   131.5246    19.9908    -0.9995     0.0010    14.0000     4.0000     4.0000     2.0000    16.0000     4.0000     6.0000    10.0000    -2.0020     2.0025   159.4167   -41.1662     2.0935    39.9003     5.0055     4.9990     5.0000     5.000
     33     1.0800     0.0000     0.9200    24.9995    14.7000     31.798      7.000 125071.000     30.000    40.6465   -20.0773   -24.7056   120.0962    -0.1480    -3.0001   -58.3375   131.1319    20.2845    -0.9995     0.0010    14.0000     4.0000     4.0000     2.0000    16.0000     4.0000     6.0000    10.0000    -2.0020     2.0025   159.4167   -41.1662     2.0934    39.6995     5.0030     4.9965     5.0000     5.000
     34     1.0800     0.0000     0.9200    24.8005    14.7000     31.562      8.000 125071.000     30.000    40.7493   -20.0773   -24.7687   120.0962    -0.1480    -3.0001   -58.1772   130.7438    20.5784    -0.9995     0.0010    14.0000     4.0000     4.0000     2.0000    16.0000     4.0000     6.0000    10.0000    -2.0020     2.0025   159.4167   -41.1662     2.0935    39.5005     4.9981     5.0054     5.0000     5.000
     35     1.0800     0.0000     0.9200    24.5998    14.7000     31.588     12.000 125071.000     30.000    40.8529   -20.0773   -24.8329   120.0962    -0.1480    -3.0001   -58.0165   130.3591    20.8656    -0.9995     0.0010    14.0000     4.0000     4.0000     2.0000    16.0000     4.0000     6.0000    10.0000    -2.0020     2.0025   159.4167   -41.1662     2.0935    39.2998     4.9945     5.0051     5.0000     5.000
     36     1.0800     0.0000     0.9200    24.3999    14.7000     31.659     12.000 125071.000     30.000    40.9572   -20.0773   -24.8973   120.0962    -0.1480    -3.0001   -57.8555   129.9785    21.1512    -0.9995     0.0010    14.0000     4.0000     4.0000     2.0000    16.0000     4.0000     6.0000    10.0000    -2.0020     2.0025   159.4167   -41.1662     2.0935    39.0999     4.9949     4.9998     5.0000     5.000
     37     1.0800     0.0000     0.9200    24.2002    14.7000     31.947      9.000 125071.000     30.000    41.0624   -20.0773   -24.9622   120.0962    -0.1480    -3.0001   -57.6941   129.6012    21.4343    -0.9995     0.0010    14.0000     4.0000     4.0000     2.0000    16.0000     4.0000     6.0000    10.0000    -2.0020     2.0025   159.4167   -41.1662     2.0935    38.9002     4.9984     4.9980     5.0000     5.000
     38     1.0800     0.0000     0.9200    23.9999    14.7000     32.032      9.000 125071.000     30.000    41.1683   -20.0773   -25.0277   120.0962    -0.1480    -3.0001   -57.5324   129.2283    21.7105    -0.9995     0.0010    14.0000     4.0000     4.0000     2.0000    16.0000     4.0000     6.0000    10.0000    -2.0020     2.0025   159.4167   -41.1662     2.0934    38.6999     5.0055     5.0030     5.0000     5.000
     39     1.0800     0.0000     0.9200    23.8006    14.7000     31.975      5.000 125071.000     30.000    41.2751   -20.0773   -25.0935   120.0962    -0.1480    -3.0001   -57.3704   128.8579    21.9882    -0.9995     0.0010    14.0000     4.0000     4.0000     2.0000    16.0000     4.0000     6.0000    10.0000    -2.0020     2.0025   159.4167   -41.1662     2.0935    38.5006     5.0009     5.0024     5.0000     5.000
     40     1.0800     0.0000     0.9200    23.5999    14.7000     32.432     10.000 125071.000     30.000    41.3828   -20.0773   -25.1602   120.0962    -0.1480    -3.0001   -57.2080   128.4907    22.2612    -0.9995     0.0010    14.0000     4.0000     4.0000     2.0000    16.0000     4.0000     6.0000    10.0000    -2.0020     2.0025   159.4167   -41.1662     2.0935    38.2999     4.9957     4.9960     5.0000     5.000
     41     1.0800     0.0000     0.9200    23.3993    14.7000     32.567     16.000 125071.000     30.000    41.4912   -20.0773   -25.2275   120.0962    -0.1480    -3.0001   -57.0453   128.1269    22.5309    -0.9995     0.0010    14.0000     4.0000     4.0000     2.0000    16.0000     4.0000     6.0000    10.0000    -2.0020     2.0025   159.4167   -41.1662     2.0934    38.0993     4.9976     4.9968     5.0000     5.000
     42     1.0800     0.0000     0.9200    23.1998    14.7000     32.929      5.000 125071.000     30.000    41.6006   -20.0773   -25.2949   120.0962    -0.1480    -3.0001   -56.8822   127.7656    22.8002    -0.9995     0.0010    14.0000     4.0000     4.0000     2.0000    16.0000     4.0000     6.0000    10.0000    -2.0020     2.0025   159.4167   -41.1662     2.0935    37.8998     4.9961     4.9980     5.0000     5.000
     43     1.0800     0.0000     0.9200    23.0003    14.7000     33.215      8.000 125071.000     30.000    41.7108   -20.0773   -25.3628   120.0962    -0.1480    -3.0001   -56.7188   127.4078    23.0656    -0.9995     0.0010    14.0000     4.0000     4.0000     2.0000    16.0000     4.0000     6.0000    10.0000    -2.0020     2.0025   159.4167   -41.1662     2.0935    37.7003     5.0048     5.0012     5.0000     5.000
     44     1.0800     0.0000     0.9200    22.8002    14.7000     33.471     14.000 125071.000     30.000    41.8218   -20.0773   -25.4315   120.0962    -0.1480    -3.0001   -56.5550   127.0521    23.3294    -0.9995     0.0010    14.0000     4.0000     4.0000     2.0000    16.0000     4.0000     6.0000    10.0000    -2.0020     2.0025   159.4167   -41.1662     2.0935    37.5002     4.9975     4.9971     5.0000     5.000
     45     1.0801     0.0000     0.9200    22.6012    14.7000     33.844     12.000 125071.000     30.000    41.9338   -20.0773   -25.5004   120.0962    -0.1480    -3.0001   -56.3908   126.6989    23.5908    -0.9995     0.0010    14.0000     4.0000     4.0000     2.0000    16.0000     4.0000     6.0000    10.0000    -2.0020     2.0025   159.4167   -41.1662     2.0936    37.3012     4.9939     5.0018     5.0000     5.000
     46     1.0800     0.0000     0.9199    22.3990    14.7000     33.837      4.000 125071.000     30.000    42.0467   -20.0773   -25.5710   120.0962    -0.1480    -3.0001   -56.2263   126.3484    23.8488    -0.9995     0.0010    14.0000     4.0000     4.0000     2.0000    16.0000     4.0000     6.0000    10.0000    -2.0020     2.0025   159.4167   -41.1662     2.0935    37.0990     4.9944     5.0015     5.0000     5.000
     47     1.0799     0.0000     0.9200    22.2002    14.7000     34.301      8.000 125071.000     30.000    42.1605   -20.0773   -25.6409   120.0962    -0.1480    -3.0001   -56.0614   126.0001    24.1022    -0.9995     0.0010    14.0000     4.0000     4.0000     2.0000    16.0000     4.0000     6.0000    10.0000    -2.0020     2.0025   159.4167   -41.1662     2.0934    36.9002     4.9939     4.9960     5.0000     5.000
     48     1.0800     0.0000     0.9200    21.9999    14.7000     34.431      7.000 125071.000     30.000    42.2752   -20.0773   -25.7120   120.0962    -0.1480    -3.0001   -55.8961   125.6544    24.3597    -0.9995     0.0010    14.0000     4.0000     4.0000     2.0000    16.0000     4.0000     6.0000    10.0000    -2.0020     2.0025   159.4167   -41.1662     2.0935    36.6999     4.9953     5.0003     5.0000     5.000
     49     1.0800     0.0000     0.9200    21.8000    14.7000     34.722      8.000 125071.000     30.000    42.3909   -20.0773   -25.7835   120.0962    -0.1480    -3.0001   -55.7305   125.3104    24.6116    -0.9995     0.0010    14.0000     4.0000     4.0000     2.0000    16.0000     4.0000     6.0000    10.0000    -2.0020     2.0025   159.4167   -41.1662     2.0935    36.5000     5.0081     4.9993     5.0000     5.000
     50     1.0800     0.0000     0.9200    21.5998    14.7000     34.778     14.000 125071.000     30.000    42.5075   -20.0773   -25.8557   120.0962    -0.1480    -3.0001   -55.5645   124.9689    24.8611    -0.9995     0.0010    14.0000     4.0000     4.0000     2.0000    16.0000     4.0000     6.0000    10.0000    -2.0020     2.0025   159.4167   -41.1662     2.0935    36.2998     5.0057     5.0054     5.0000     5.000
     51     1.0799     0.0000     0.9200    21.3998    14.7000     34.810      7.000 125071.000     30.000    42.6251   -20.0773   -25.9285   120.0962    -0.1480    -3.0001   -55.3981   124.6292    25.1069    -0.9995     0.0010    14.0000     4.0000     4.0000     2.0000    16.0000     4.0000     6.0000    10.0000    -2.0020     2.0025   159.4167   -41.1662     2.0934    36.0998     5.0045     4.9978     5.0000     5.000
     52     1.0800     0.0000     0.9200    21.1997    14.7000     35.025      9.000 125071.000     30.000    42.7436   -20.0773   -26.0019   120.0962    -0.1480    -3.0001   -55.2313   124.2911    25.3571    -0.9995     0.0010    14.0000     4.0000     4.0000     2.0000    16.0000     4.0000     6.0000    10.0000    -2.0020     2.0025   159.4167   -41.1662     2.0935    35.8997     5.0078     5.0028     5.0000     5.000
     53     1.0800     0.0000     0.9200    21.0000    14.7000     34.934     10.000 125071.000     30.000    42.8632   -20.0773   -26.0758   120.0962    -0.1480    -3.0001   -55.0642   123.9558    25.6020    -0.9995     0.0010    14.0000     4.0000     4.0000     2.0000    16.0000     4.0000     6.0000    10.0000    -2.0020     2.0025   159.4167   -41.1662     2.0935    35.7000     5.0055     4.9985     5.0000     5.000
     54     1.0800     0.0000     0.9200    20.8002    14.7000     35.064     10.000 125071.000     30.000    42.9838   -20.0773   -26.1504   120.0962    -0.1480    -3.0001   -54.8966   123.6214    25.8451    -0.9995     0.0010    14.0000     4.0000     4.0000     2.0000    16.0000     4.0000     6.0000    10.0000    -2.0020     2.0025   159.4167   -41.1662     2.0935    35.5002     5.0050     4.9973     5.0000     5.000
     55     1.0800     0.0000     0.9200    20.6000    14.7000     35.052     13.000 125071.000     30.000    43.1054   -20.0773   -26.2258   120.0962    -0.1480    -3.0001   -54.7287   123.2894    26.0841    -0.9995     0.0010    14.0000     4.0000     4.0000     2.0000    16.0000     4.0000     6.0000    10.0000    -2.0020     2.0025   159.4167   -41.1662     2.0934    35.3000     4.9975     5.0036     5.0000     5.000
     56     1.0800     0.0000     0.9200    20.4003    14.7000     35.085     14.000 125071.000     30.000    43.2280   -20.0773   -26.3016   120.0962    -0.1480    -3.0001   -54.5603   122.9584    26.3238    -0.9995     0.0010    14.0000     4.0000     4.0000     2.0000    16.0000     4.0000     6.0000    10.0000    -2.0020     2.0025   159.4167   -41.1662     2.0935    35.1003     5.0045     5.0027     5.0000     5.000
     57     1.0800     0.0000     0.9200    20.1998    14.7000     35.146     14.000 125071.000     30.000    43.3517   -20.0773   -26.3784   120.0962    -0.1480    -3.0001   -54.3916   122.6292    26.5634    -0.9995     0.0010    14.0000     4.0000     4.0000     2.0000    16.0000     4.0000     6.0000    10.0000    -2.0020     2.0025   159.4167   -41.1662     2.0935    34.8998     5.0053     5.0007     5.0000     5.000
     58     1.0800     0.0000     0.9200    19.9996    14.7000     35.239     14.000 125071.000     30.000    43.4765   -20.0773   -26.4558   120.0962    -0.1480    -3.0001   -54.2224   122.3014    26.8006    -0.9995     0.0010    14.0000     4.0000     4.0000     2.0000    16.0000     4.0000     6.0000    10.0000    -2.0020     2.0025   159.4167   -41.1662     2.0935    34.6996     5.0047     4.9960     5.0000     5.000
     59     1.0801     0.0000     0.9200    19.8008    14.7000     35.506      9.000 125071.000     30.000    43.6023   -20.0773   -26.5333   120.0962    -0.1480    -3.0001   -54.0529   121.9755    27.0366    -0.9995     0.0010    14.0000     4.0000     4.0000     2.0000    16.0000     4.0000     6.0000    10.0000    -2.0020     2.0025   159.4167   -41.1662     2.0936    34.5008     4.9971     4.9985     5.0000     5.000
     60     1.0801     0.0000     0.9200    19.6001    14.7000     35.658     10.000 125071.000     30.000    43.7292   -20.0773   -26.6122   120.0962    -0.1480    -3.0001   -53.8830   121.6506    27.2719    -0.9995     0.0010    14.0000     4.0000     4.0000     2.0000    16.0000     4.0000     6.0000    10.0000    -2.0020     2.0025   159.4167   -41.1662     2.0936    34.3001     4.9968     5.0017     5.0000     5.000
     61     1.0800     0.0000     0.9200    19.3996    14.7000     36.002     16.000 125071.000     30.000    43.8573   -20.0773   -26.6918   120.0962    -0.1480    -3.0001   -53.7126   121.3274    27.4994    -0.9995     0.0010    14.0000     4.0000     4.0000     2.0000    16.0000     4.0000     6.0000    10.0000    -2.0020     2.0025   159.4167   -41.1662     2.0934    34.0996     5.0010     5.0016     5.0000     5.000
     62     1.0800     0.0000     0.9200    19.2001    14.7000     36.176     13.000 125071.000     30.000    43.9865   -20.0773   -26.7717   120.0962    -0.1480    -3.0001   -53.5418   121.0051    27.7298    -0.9995     0.0010    14.0000     4.0000     4.0000     2.0000    16.0000     4.0000     6.0000    10.0000    -2.0020     2.0025   159.4167   -41.1662     2.0934    33.9001     5.0026     5.0023     5.0000     5.000
     63     1.0800     0.0000     0.9200    18.9997    14.7000     36.619      4.000 125071.000     30.000    44.1168   -20.0773   -26.8527   120.0962    -0.1480    -3.0001   -53.3706   120.6844    27.9614    -0.9995     0.0010    14.0000     4.0000     4.0000     2.0000    16.0000     4.0000     6.0000    10.0000    -2.0020     2.0025   159.4167   -41.1662     2.0935    33.6996     4.9938     5.0029     5.0000     5.000
     64     1.0800     0.0000     0.9200    18.7999    14.7000     36.608     16.000 125071.000     30.000    44.2483   -20.0773   -26.9341   120.0962    -0.1480    -3.0001   -53.1990   120.3644    28.1890    -0.9995     0.0010    14.0000     4.0000     4.0000     2.0000    16.0000     4.0000     6.0000    10.0000    -2.0020     2.0025   159.4167   -41.1662     2.0935    33.4999     4.9963     5.0028     5.0000     5.000
     65     1.0800     0.0000     0.9200    18.6005    14.7000     36.991     13.000 125071.000     30.000    44.3810   -20.0773   -27.0161   120.0962    -0.1480    -3.0001   -53.0269   120.0459    28.4166    -0.9995     0.0010    14.0000     4.0000     4.0000     2.0000    16.0000     4.0000     6.0000    10.0000    -2.0020     2.0025   159.4167   -41.1662     2.0936    33.3005     4.9942     5.0005     5.0000     5.000
     66     1.0800     0.0000     0.9200    18.4000    14.7000     37.074     19.000 125071.000     30.000    44.5149   -20.0773   -27.0994   120.0962    -0.1480    -3.0001   -52.8544   119.7288    28.6420    -0.9995     0.0010    14.0000     4.0000     4.0000     2.0000    16.0000     4.0000     6.0000    10.0000    -2.0020     2.0025   159.4167   -41.1662     2.0935    33.1000     5.0021     4.9993     5.0000     5.000
     67     1.0800     0.0000     0.9200    18.2000    14.7000     37.272     15.000 125071.000     30.000    44.6500   -20.0773   -27.1832   120.0962    -0.1480    -3.0001   -52.6815   119.4119    28.8660    -0.9995     0.0010    14.0000     4.0000     4.0000     2.0000    16.0000     4.0000     6.0000    10.0000    -2.0020     2.0025   159.4167   -41.1662     2.0935    32.9000     5.0006     4.9989     5.0000     5.000
     68     1.0800     0.0000     0.9200    18.0001    14.7000     37.229     16.000 125071.000     30.000    44.7863   -20.0773   -27.2678   120.0962    -0.1480    -3.0001   -52.5081   119.0965    29.0872    -0.9995     0.0010    14.0000     4.0000     4.0000     2.0000    16.0000     4.0000     6.0000    10.0000    -2.0020     2.0025   159.4167   -41.1662     2.0934    32.7001     4.9935     4.9967     5.0000     5.000
     69     1.0800     0.0000     0.9200    17.7998    14.7000     37.484     16.000 125071.000     30.000    44.9239   -20.0773   -27.3533   120.0962    -0.1480    -3.0001   -52.3343   118.7823    29.3101    -0.9995     0.0010    14.0000     4.0000     4.0000     2.0000    16.0000     4.0000     6.0000    10.0000    -2.0020     2.0025   159.4167   -41.1662     2.0935    32.4997     5.0052     5.0014     5.0000     5.000
     70     1.0800     0.0000     0.9200    17.6000    14.7000     37.716     15.000 125071.000     30.000    45.0627   -20.0773   -27.4394   120.0962    -0.1480    -3.0001   -52.1600   118.4686    29.5315    -0.9995     0.0010    14.0000     4.0000     4.0000     2.0000    16.0000     4.0000     6.0000    10.0000    -2.0020     2.0025   159.4167   -41.1662     2.0935    32.3000     4.9936     4.9980     5.0000     5.000
     71     1.0800     0.0000     0.9200    17.4002    14.7000     37.744      9.000 125071.000     30.000    45.2029   -20.0773   -27.5264   120.0962    -0.1480    -3.0001   -51.9853   118.1557    29.7518    -0.9995     0.0010    14.0000     4.0000     4.0000     2.0000    16.0000     4.0000     6.0000    10.0000    -2.0020     2.0025   159.4167   -41.1662     2.0935    32.1002     5.0066     4.9989     5.0000     5.000
     72     1.0800     0.0000     0.9200    17.1997    14.7000     38.052     13.000 125071.000     30.000    45.3444   -20.0773   -27.6144   120.0962    -0.1480    -3.0001   -51.8102   117.8440    29.9709    -0.9995     0.0010    14.0000     4.0000     4.0000     2.0000    16.0000     4.0000     6.0000    10.0000    -2.0020     2.0025   159.4167   -41.1662     2.0935    31.8997     4.9941     5.0008     5.0000     5.000
     73     1.0800     0.0000     0.9200    16.9998    14.7000     38.281     16.000 125071.000     30.000    45.4872   -20.0773   -27.7031   120.0962    -0.1480    -3.0001   -51.6345   117.5329    30.1886    -0.9995     0.0010    14.0000     4.0000     4.0000     2.0000    16.0000     4.0000     6.0000    10.0000    -2.0020     2.0025   159.4167   -41.1662     2.0935    31.6998     4.9979     5.0000     5.0000     5.000
     74     1.0800     0.0000     0.9200    16.8005    14.7000     38.436     13.000 125071.000     30.000    45.6314   -20.0773   -27.7924   120.0962    -0.1480    -3.0001   -51.4584   117.2224    30.4049    -0.9995     0.0010    14.0000     4.0000     4.0000     2.0000    16.0000     4.0000     6.0000    10.0000    -2.0020     2.0025   159.4167   -41.1662     2.0935    31.5005     4.9966     5.0065     5.0000     5.000
     75     1.0800     0.0000     0.9200    16.5999    14.7000     38.379     13.000 125071.000     30.000    45.7769   -20.0773   -27.8831   120.0962    -0.1480    -3.0001   -51.2818   116.9130    30.6211    -0.9995     0.0010    14.0000     4.0000     4.0000     2.0000    16.0000     4.0000     6.0000    10.0000    -2.0020     2.0025   159.4167   -41.1662     2.0935    31.2999     4.9954     5.0007     5.0000     5.000
     76     1.0800     0.0000     0.9200    16.3998    14.7000     38.414     17.000 125071.000     30.000    45.9239   -20.0773   -27.9744   120.0962    -0.1480    -3.0001   -51.1048   116.6039    30.8362    -0.9995     0.0010    14.0000     4.0000     4.0000     2.0000    16.0000     4.0000     6.0000    10.0000    -2.0020     2.0025   159.4167   -41.1662     2.0936    31.0998     5.0048     4.9965     5.0000     5.000
     77     1.0800     0.0000     0.9200    16.2003    14.7000     38.324     15.000 125071.000     30.000    46.0723   -20.0773   -28.0664   120.0962    -0.1480    -3.0001   -50.9273   116.2955    31.0486    -0.9995     0.0010    14.0000     4.0000     4.0000     2.0000    16.0000     4.0000     6.0000    10.0000    -2.0020     2.0025   159.4167   -41.1662     2.0935    30.9003     4.9960     5.0013     5.0000     5.000
     78     1.0800     0.0000     0.9200    15.9999    14.7000     38.507     14.000 125071.000     30.000    46.2221   -20.0773   -28.1598   120.0962    -0.1480    -3.0001   -50.7492   115.9880    31.2614    -0.9995     0.0010    14.0000     4.0000     4.0000     2.0000    16.0000     4.0000     6.0000    10.0000    -2.0020     2.0025   159.4167   -41.1662     2.0935    30.6999     4.9995     4.9997     5.0000     5.000
     79     1.0800     0.0000     0.9200    15.8000    14.7000     38.681     14.000 125071.000     30.000    46.3734   -20.0773   -28.2538   120.0962    -0.1480    -3.0001   -50.5708   115.6805    31.4721    -0.9995     0.0010    14.0000     4.0000     4.0000     2.0000    16.0000     4.0000     6.0000    10.0000    -2.0020     2.0025   159.4167   -41.1662     2.0934    30.5000     5.0002     4.9986     5.0000     5.000
     80     1.0800     0.0000     0.9200    15.5998    14.7000     38.815     15.000 125071.000     30.000    46.5262   -20.0773   -28.3490   120.0962    -0.1480    -3.0001   -50.3918   115.3744    31.6825    -0.9995     0.0010    14.0000     4.0000     4.0000     2.0000    16.0000     4.0000     6.0000    10.0000    -2.0020     2.0025   159.4167   -41.1662     2.0934    30.2998     5.0044     4.9958     5.0000     5.000
     81     1.0800     0.0000     0.9200    15.4000    14.7000     39.173     26.000 125071.000     30.000    46.6805   -20.0773   -28.4449   120.0962    -0.1480    -3.0001   -50.2122   115.0679    31.8927    -0.9995     0.0010    14.0000     4.0000     4.0000     2.0000    16.0000     4.0000     6.0000    10.0000    -2.0020     2.0025   159.4167   -41.1662     2.0934    30.1000     5.0019     5.0024     5.0000     5.000
     82     1.0800     0.0000     0.9200    15.2002    14.7000     39.119     25.000 125071.000     30.000    46.8364   -20.0773   -28.5418   120.0962    -0.1480    -3.0001   -50.0322   114.7624    32.1020    -0.9995     0.0010    14.0000     4.0000     4.0000     2.0000    16.0000     4.0000     6.0000    10.0000    -2.0020     2.0025   159.4167   -41.1662     2.0934    29.9002     5.0002     4.9937     5.0000     5.000
     83     1.0799     0.0000     0.9200    14.9998    14.7000     39.623     22.000 125071.000     30.000    46.9938   -20.0773   -28.6399   120.0962    -0.1480    -3.0001   -49.8518   114.4569    32.3095    -0.9995     0.0010    14.0000     4.0000     4.0000     2.0000    16.0000     4.0000     6.0000    10.0000    -2.0020     2.0025   159.4167   -41.1662     2.0934    29.6998     4.9940     5.0033     5.0000     5.000
     84     1.0800     0.0000     0.9200    14.8001    14.7000     39.468     16.000 125071.000     30.000    47.1528   -20.0773   -28.7388   120.0962    -0.1480    -3.0001   -49.6707   114.1524    32.5179    -0.9995     0.0010    14.0000     4.0000     4.0000     2.0000    16.0000     4.0000     6.0000    10.0000    -2.0020     2.0025   159.4167   -41.1662     2.0934    29.5001     4.9973     5.0012     5.0000     5.000
     85     1.0800     0.0000     0.9200    14.5999    14.7000     38.815     12.000 125071.000     30.000    47.3135   -20.0773   -28.8389   120.0962    -0.1480    -3.0001   -49.4892   113.8479    32.7250    -0.9995     0.0010    14.0000     4.0000     4.0000     2.0000    16.0000     4.0000     6.0000    10.0000    -2.0020     2.0025   159.4167   -41.1662     2.0934    29.2999     4.9942     4.9989     5.0000     5.000
     86     1.0800     0.0000     0.9200    14.3999    14.7000     38.856     14.000 125071.000     30.000    47.4758   -20.0773   -28.9400   120.0962    -0.1480    -3.0001   -49.3071   113.5436    32.9303    -0.9995     0.0010    14.0000     4.0000     4.0000     2.0000    16.0000     4.0000     6.0000    10.0000    -2.0020     2.0025   159.4167   -41.1662     2.0934    29.0999     5.0053     5.0032     5.0000     5.000
     87     1.0800     0.0000     0.9200    14.2002    14.7000     38.041     20.000 125071.000     30.000    47.6398   -20.0773   -29.0420   120.0962    -0.1480    -3.0001   -49.1245   113.2398    33.1359    -0.9995     0.0010    14.0000     4.0000     4.0000     2.0000    16.0000     4.0000     6.0000    10.0000    -2.0020     2.0025   159.4167   -41.1662     2.0934    28.9001     4.9953     4.9994     5.0000     5.000
     88     1.0800     0.0000     0.9200    14.0000    14.7000     37.751     24.000 125071.000     30.000    47.8055   -20.0773   -29.1453   120.0962    -0.1480    -3.0001   -48.9414   112.9361    33.3423    -0.9995     0.0010    14.0000     4.0000     4.0000     2.0000    16.0000     4.0000     6.0000    10.0000    -2.0020     2.0025   159.4167   -41.1662     2.0935    28.7000     4.9960     5.0030     5.0000     5.000
     89     1.0800     0.0000     0.9200    13.8002    14.7000     37.335     10.000 125071.000     30.000    47.9729   -20.0773   -29.2496   120.0962    -0.1480    -3.0001   -48.7577   112.6333    33.5457    -0.9995     0.0010    14.0000     4.0000     4.0000     2.0000    16.0000     4.0000     6.0000    10.0000    -2.0020     2.0025   159.4167   -41.1662     2.0935    28.5002     4.9954     5.0027     5.0000     5.000
     90     1.0800     0.0000     0.9200    13.5999    14.7000     36.943     24.000 125071.000     30.000    48.1422   -20.0773   -29.3553   120.0962    -0.1480    -3.0001   -48.5734   112.3296    33.7477    -0.9995     0.0010    14.0000     4.0000     4.0000     2.0000    16.0000     4.0000     6.0000    10.0000    -2.0020     2.0025   159.4167   -41.1662     2.0935    28.2999     4.9934     4.9970     5.0000     5.000
     91     1.0800     0.0000     0.9200    13.4003    14.7000     36.765     18.000 125071.000     30.000    48.3132   -20.0773   -29.4617   120.0962    -0.1480    -3.0001   -48.3886   112.0265    33.9508    -0.9995     0.0010    14.0000     4.0000     4.0000     2.0000    16.0000     4.0000     6.0000    10.0000    -2.0020     2.0025   159.4167   -41.1662     2.0935    28.1003     4.9989     5.0020     5.0000     5.000
     92     1.0800     0.0000     0.9200    13.1999    14.7000     37.179     15.000 125071.000     30.000    48.4860   -20.0773   -29.5697   120.0962    -0.1480    -3.0001   -48.2033   111.7244    34.1522    -0.9995     0.0010    14.0000     4.0000     4.0000     2.0000    16.0000     4.0000     6.0000    10.0000    -2.0020     2.0025   159.4167   -41.1662     2.0935    27.8999     5.0077     4.9988     5.0000     5.000
     93     1.0800     0.0000     0.9200    13.0002    14.7000     37.226     24.000 125071.000     30.000    48.6608   -20.0773   -29.6786   120.0962    -0.1480    -3.0001   -48.0174   111.4211    34.3534    -0.9995     0.0010    14.0000     4.0000     4.0000     2.0000    16.0000     4.0000     6.0000    10.0000    -2.0020     2.0025   159.4167   -41.1662     2.0935    27.7001     5.0002     5.0019     5.0000     5.000
     94     1.0800     0.0000     0.9200    12.7998    14.7000     37.455     34.000 125071.000     30.000    48.8374   -20.0773   -29.7890   120.0962    -0.1480    -3.0001   -47.8309   111.1191    34.5538    -0.9995     0.0010    14.0000     4.0000     4.0000     2.0000    16.0000     4.0000     6.0000    10.0000    -2.0020     2.0025   159.4167   -41.1662     2.0935    27.4997     5.0027     5.0008     5.0000     5.000
     95     1.0800     0.0000     0.9200    12.5999    14.7000     38.022     20.000 125071.000     30.000    49.0160   -20.0773   -29.9004   120.0962    -0.1480    -3.0001   -47.6438   110.8160    34.7536    -0.9995     0.0010    14.0000     4.0000     4.0000     2.0000    16.0000     4.0000     6.0000    10.0000    -2.0020     2.0025   159.4167   -41.1662     2.0935    27.2999     5.0074     5.0037     5.0000     5.000
     96     1.0800     0.0000     0.9200    12.4001    14.7000     38.724     16.000 125071.000     30.000    49.1965   -20.0773   -30.0130   120.0962    -0.1480    -3.0001   -47.4562   110.5141    34.9526    -0.9995     0.0010    14.0000     4.0000     4.0000     2.0000    16.0000     4.0000     6.0000    10.0000    -2.0020     2.0025   159.4167   -41.1662     2.0935    27.1001     4.9966     4.9969     5.0000     5.000
     97     1.0800     0.0000     0.9200    12.2000    14.7000     39.433     20.000 125071.000     30.000    49.3790   -20.0773   -30.1270   120.0962    -0.1480    -3.0001   -47.2680   110.2110    35.1506    -0.9995     0.0010    14.0000     4.0000     4.0000     2.0000    16.0000     4.0000     6.0000    10.0000    -2.0020     2.0025   159.4167   -41.1662     2.0935    26.9000     4.9989     5.0034     5.0000     5.000
     98     1.0800     0.0000     0.9200    12.0000    14.7000     39.564     26.000 125071.000     30.000    49.5636   -20.0773   -30.2424   120.0962    -0.1480    -3.0001   -47.0791   109.9090    35.3483    -0.9995     0.0010    14.0000     4.0000     4.0000     2.0000    16.0000     4.0000     6.0000    10.0000    -2.0020     2.0025   159.4167   -41.1662     2.0935    26.7000     5.0038     4.9987     5.0000     5.000
     99     1.0800     0.0000     0.9200    11.8002    14.7000     39.758     17.000 125071.000     30.000    49.7503   -20.0773   -30.3589   120.0962    -0.1480    -3.0001   -46.8897   109.6059    35.5451    -0.9995     0.0010    14.0000     4.0000     4.0000     2.0000    16.0000     4.0000     6.0000    10.0000    -2.0020     2.0025   159.4167   -41.1662     2.0935    26.5002     4.9939     5.0022     5.0000     5.000
    100     1.0800     0.0000     0.9200    11.6001    14.7000     39.623     18.000 125071.000     30.000    49.9392   -20.0773   -30.4769   120.0962    -0.1480    -3.0001   -46.6996   109.3038    35.7418    -0.9995     0.0010    14.0000     4.0000     4.0000     2.0000    16.0000     4.0000     6.0000    10.0000    -2.0020     2.0025   159.4167   -41.1662     2.0935    26.3001     4.9949     5.0027     5.0000     5.000
    101     1.0800     0.0000     0.9200    11.3997    14.7000     39.377     17.000 125071.000     30.000    50.1301   -20.0773   -30.5966   120.0962    -0.1480    -3.0001   -46.5090   109.0005    35.9362    -0.9995     0.0010    14.0000     4.0000     4.0000     2.0000    16.0000     4.0000     6.0000    10.0000    -2.0020     2.0025   159.4167   -41.1662     2.0934    26.0997     4.9936     4.9944     5.0000     5.000
    102     1.0800     0.0000     0.9200    11.2000    14.7000     38.984     17.000 125071.000     30.000    50.3233   -20.0773   -30.7172   120.0962    -0.1480    -3.0001   -46.3176   108.6980    36.1311    -0.9995     0.0010    14.0000     4.0000     4.0000     2.0000    16.0000     4.0000     6.0000    10.0000    -2.0020     2.0025   159.4167   -41.1662     2.0934    25.9000     4.9933     4.9997     5.0000     5.000
    103     1.0800     0.0000     0.9200    11.0002    14.7000     38.813     27.000 125071.000     30.000    50.5187   -20.0773   -30.8393   120.0962    -0.1480    -3.0001   -46.1257   108.3946    36.3256    -0.9995     0.0010    14.0000     4.0000     4.0000     2.0000    16.0000     4.0000     6.0000    10.0000    -2.0020     2.0025   159.4167   -41.1662     2.0934    25.7002     4.9989     4.9972     5.0000     5.000
    104     1.0800     0.0000     0.9200    10.8000    14.7000     38.671     15.000 125071.000     30.000    50.7164   -20.0773   -30.9632   120.0962    -0.1480    -3.0001   -45.9331   108.0913    36.5195    -0.9995     0.0010    14.0000     4.0000     4.0000     2.0000    16.0000     4.0000     6.0000    10.0000    -2.0020     2.0025   159.4167   -41.1662     2.0934    25.5000     5.0034     4.9983     5.0000     5.000
    105     1.0799     0.0000     0.9200    10.6002    14.7000     38.712     24.000 125071.000     30.000    50.9165   -20.0773   -31.0883   120.0962    -0.1480    -3.0001   -45.7399   107.7879    36.7120    -0.9995     0.0010    14.0000     4.0000     4.0000     2.0000    16.0000     4.0000     6.0000    10.0000    -2.0020     2.0025   159.4167   -41.1662     2.0934    25.3002     4.9995     4.9993     5.0000     5.000
    106     1.0799     0.0000     0.9200    10.3997    14.7000     38.731     11.000 125071.000     30.000    51.1190   -20.0773   -31.2153   120.0962    -0.1480    -3.0001   -45.5460   107.4841    36.9057    -0.9995     0.0010    14.0000     4.0000     4.0000     2.0000    16.0000     4.0000     6.0000    10.0000    -2.0020     2.0025   159.4167   -41.1662     2.0934    25.0997     4.9955     4.9977     5.0000     5.000
    107     1.0800     0.0000     0.9200    10.2003    14.7000     39.013     21.000 125071.000     30.000    51.3239   -20.0773   -31.3433   120.0962    -0.1480    -3.0001   -45.3514   107.1799    37.0986    -0.9995     0.0010    14.0000     4.0000     4.0000     2.0000    16.0000     4.0000     6.0000    10.0000    -2.0020     2.0025   159.4167   -41.1662     2.0934    24.9003     4.9973     5.0018     5.0000     5.000
    108     1.0800     0.0000     0.9200    10.0005    14.7000     39.373     20.000 125071.000     30.000    51.5312   -20.0773   -31.4731   120.0962    -0.1480    -3.0001   -45.1562   106.8754    37.2902    -0.9995     0.0010    14.0000     4.0000     4.0000     2.0000    16.0000     4.0000     6.0000    10.0000    -2.0020     2.0025   159.4167   -41.1662     2.0934    24.7005     4.9974     4.9998     5.0000     5.000
    109     1.0800     0.0000     0.9200     9.7995    14.7000     39.953      9.000 125071.000     30.000    51.7411   -20.0773   -31.6053   120.0962    -0.1480    -3.0001   -44.9603   106.5708    37.4825    -0.9995     0.0010    14.0000     4.0000     4.0000     2.0000    16.0000     4.0000     6.0000    10.0000    -2.0020     2.0025   159.4167   -41.1662     2.0934    24.4995     4.9948     5.0006     5.0000     5.000
    110     1.0800     0.0000     0.9200     9.5998    14.7000     40.392     11.000 125071.000     30.000    51.9536   -20.0773   -31.7383   120.0962    -0.1480    -3.0001   -44.7637   106.2655    37.6748    -0.9995     0.0010    14.0000     4.0000     4.0000     2.0000    16.0000     4.0000     6.0000    10.0000    -2.0020     2.0025   159.4167   -41.1662     2.0935    24.2998     5.0050     4.9978     5.0000     5.000
    111     1.0801     0.0000     0.9201     9.4001    14.7000     41.049     13.000 125071.000     30.000    52.1687   -20.0773   -31.8730   120.0962    -0.1480    -3.0001   -44.5664   105.9601    37.8673    -0.9995     0.0010    14.0000     4.0000     4.0000     2.0000    16.0000     4.0000     6.0000    10.0000    -2.0020     2.0025   159.4167   -41.1662     2.0936    24.1001     4.9957     5.0006     5.0000     5.000
    112     1.0800     0.0000     0.9200     9.2001    14.7000     41.277     10.000 125071.000     30.000    52.3866   -20.0773   -32.0096   120.0962    -0.1480    -3.0001   -44.3684   105.6543    38.0551    -0.9995     0.0010    14.0000     4.0000     4.0000     2.0000    16.0000     4.0000     6.0000    10.0000    -2.0020     2.0025   159.4167   -41.1662     2.0935    23.9001     4.9969     4.9968     5.0000     5.000
    113     1.0800     0.0000     0.9200     9.0000    14.7000     40.987     11.000 125071.000     30.000    52.6071   -20.0773   -32.1481   120.0962    -0.1480    -3.0001   -44.1697   105.3474    38.2455    -0.9995     0.0010    14.0000     4.0000     4.0000     2.0000    16.0000     4.0000     6.0000    10.0000    -2.0020     2.0025   159.4167   -41.1662     2.0935    23.7000     5.0035     4.9996     5.0000     5.000
    114     1.0801     0.0000     0.9201     8.8001    14.7000     40.298      7.000 125071.000     30.000    52.8305   -20.0773   -32.2883   120.0962    -0.1480    -3.0001   -43.9703   105.0404    38.4357    -0.9992     0.0010    14.0000     4.0000     4.0000     2.0000    16.0000     4.0000     6.0000    10.0000    -2.0020     2.0025   159.4167   -41.1662     2.0936    23.5001     4.9931     5.0036     5.0000     5.000
    115     1.0800     0.0000     0.9200     8.5997    14.7000     39.204     11.000 125071.000     30.000    53.0568   -20.0773   -32.4306   120.0962    -0.1480    -3.0001   -43.7701   104.7334    38.6235    -0.9992     0.0010    14.0000     4.0000     4.0000     2.0000    16.0000     4.0000     6.0000    10.0000    -2.0020     2.0025   159.4167   -41.1662     2.0936    23.2997     4.9999     5.0035     5.0000     5.000
    116     1.0801     0.0000     0.9201     8.4003    14.7000     37.950     10.000 125071.000     30.000    53.2860   -20.0773   -32.5742   120.0962    -0.1480    -3.0001   -43.5692   104.4248    38.8122    -0.9992     0.0010    14.0000     4.0000     4.0000     2.0000    16.0000     4.0000     6.0000    10.0000    -2.0020     2.0025   159.4167   -41.1662     2.0936    23.1003     5.0043     4.9995     5.0000     5.000
    117     1.0800     0.0000     0.9201     8.2000    14.7000     37.091     16.000 125071.000     30.000    53.5181   -20.0773   -32.7203   120.0962    -0.1480    -3.0001   -43.3675   104.1160    38.9988    -0.9992     0.0010    14.0000     4.0000     4.0000     2.0000    16.0000     4.0000     6.0000    10.0000    -2.0020     2.0025   159.4167   -41.1662     2.0936    22.9000     5.0067     5.0014     5.0000     5.000
    118     1.0800     0.0000     0.9200     7.9998    14.7000     36.102     11.000 125071.000     30.000    53.7534   -20.0773   -32.8684   120.0962    -0.1480    -3.0001   -43.1651   103.8069    39.1855    -0.9992     0.0010    14.0000     4.0000     4.0000     2.0000    16.0000     4.0000     6.0000    10.0000    -2.0020     2.0025   159.4167   -41.1662     2.0935    22.6998     4.9953     5.0001     5.0000     5.000
    119     1.0800     0.0000     0.9200     7.8001    14.7000     35.863     10.000 125071.000     30.000    53.9918   -20.0773   -33.0181   120.0962    -0.1480    -3.0001   -42.9618   103.4969    39.3713    -0.9992     0.0010    14.0000     4.0000     4.0000     2.0000    16.0000     4.0000     6.0000    10.0000    -2.0020     2.0025   159.4167   -41.1662     2.0935    22.5001     5.0041     4.9982     5.0000     5.000
    120     1.0800     0.0000     0.9200     7.5998    14.7000     35.586      7.000 125071.000     30.000    54.2334   -20.0773   -33.1703   120.0962    -0.1480    -3.0001   -42.7578   103.1861    39.5569    -0.9992     0.0010    14.0000     4.0000     4.0000     2.0000    16.0000     4.0000     6.0000    10.0000    -2.0020     2.0025   159.4167   -41.1662     2.0935    22.2998     4.9965     4.9996     5.0000     5.000
    121     1.0800     0.0000     0.9200     7.4002    14.7000     35.644      6.000 125071.000     30.000    54.4782   -20.0773   -33.3241   120.0962    -0.1480    -3.0001   -42.5531   102.8749    39.7420    -0.9992     0.0010    14.0000     4.0000     4.0000     2.0000    16.0000     4.0000     6.0000    10.0000    -2.0020     2.0025   159.4167   -41.1662     2.0935    22.1002     5.0062     5.0025     5.0000     5.000
    122     1.0800     0.0000     0.9200     7.1999    14.7000     35.671      6.000 125071.000     30.000    54.7264   -20.0773   -33.4806   120.0962    -0.1480    -3.0001   -42.3475   102.5626    39.9258    -0.9992     0.0010    14.0000     4.0000     4.0000     2.0000    16.0000     4.0000     6.0000    10.0000    -2.0020     2.0025   159.4167   -41.1662     2.0934    21.8999     5.0019     5.0030     5.0000     5.000
    123     1.0799     0.0000     0.9200     7.0000    14.7000     35.870      9.000 125071.000     30.000    54.9780   -20.0773   -33.6390   120.0962    -0.1480    -3.0001   -42.1410   102.2495    40.1101    -0.9992     0.0010    14.0000     4.0000     4.0000     2.0000    16.0000     4.0000     6.0000    10.0000    -2.0020     2.0025   159.4167   -41.1662     2.0934    21.7000     4.9973     4.9974     5.0000     5.000
    124     1.0800     0.0000     0.9200     6.8002    14.7000     35.903      8.000 125071.000     30.000    55.2331   -20.0773   -33.7997   120.0962    -0.1480    -3.0001   -41.9338   101.9356    40.2955    -0.9992     0.0010    14.0000     4.0000     4.0000     2.0000    16.0000     4.0000     6.0000    10.0000    -2.0020     2.0025   159.4167   -41.1662     2.0934    21.5002     4.9961     5.0050     5.0000     5.000
    125     1.0800     0.0000     0.9200     6.6000    14.7000     36.196      6.000 125071.000     30.000    55.4918   -20.0773   -33.9630   120.0962    -0.1480    -3.0001   -41.7257   101.6209    40.4790    -0.9992     0.0010    14.0000     4.0000     4.0000     2.0000    16.0000     4.0000     6.0000    10.0000    -2.0020     2.0025   159.4167   -41.1662     2.0934    21.2999     4.9995     4.9978     5.0000     5.000
    126     1.0800     0.0000     0.9200     6.3999    14.7000     36.702      2.000 125071.000     30.000    55.7542   -20.0773   -34.1285   120.0962    -0.1480    -3.0001   -41.5168   101.3054    40.6634    -0.9992     0.0010    14.0000     4.0000     4.0000     2.0000    16.0000     4.0000     6.0000    10.0000    -2.0020     2.0025   159.4167   -41.1662     2.0935    21.0999     5.0065     5.0044     5.0000     5.000
    127     1.0800     0.0000     0.9200     6.1999    14.7000     36.975      3.000 125071.000     30.000    56.0203   -20.0773   -34.2965   120.0962    -0.1480    -3.0001   -41.3070   100.9889    40.8485    -0.9992     0.0010    14.0000     4.0000     4.0000     2.0000    16.0000     4.0000     6.0000    10.0000    -2.0020     2.0025   159.4167   -41.1662     2.0936    20.8999     5.0036     4.9971     5.0000     5.000
    128     1.0800     0.0000     0.9201     6.0001    14.7000     37.650      5.000 125071.000     30.000    56.2903   -20.0773   -34.4667   120.0962    -0.1480    -3.0001   -41.0963   100.6710    41.0307    -0.9992     0.0010    14.0000     4.0000     4.0000     2.0000    16.0000     4.0000     6.0000    10.0000    -2.0020     2.0025   159.4167   -41.1662     2.0936    20.7001     4.9963     4.9993     5.0000     5.000
    129     1.0800     0.0000     0.9200     5.8001    14.7000     38.215      3.000 125071.000     30.000    56.5643   -20.0773   -34.6397   120.0962    -0.1480    -3.0001   -40.8847   100.3528    41.2122    -0.9992     0.0010    14.0000     4.0000     4.0000     2.0000    16.0000     4.0000     6.0000    10.0000    -2.0020     2.0025   159.4167   -41.1662     2.0935    20.5001     4.9983     4.9993     5.0000     5.000
    130     1.0800     0.0000     0.9200     5.6001    14.7000     38.740      6.000 125071.000     30.000    56.8422   -20.0773   -34.8153   120.0962    -0.1480    -3.0001   -40.6722   100.0329    41.3933    -0.9992     0.0010    14.0000     4.0000     4.0000     2.0000    16.0000     4.0000     6.0000    10.0000    -2.0020     2.0025   159.4167   -41.1662     2.0935    20.3001     4.9940     4.9993     5.0000     5.000
    131     1.0800     0.0000     0.9200     5.3998    14.7000     39.500      1.000 125071.000     30.000    57.1243   -20.0773   -34.9939   120.0962    -0.1480    -3.0001   -40.4588    99.7119    41.5746    -0.9992     0.0010    14.0000     4.0000     4.0000     2.0000    16.0000     4.0000     6.0000    10.0000    -2.0020     2.0025   159.4167   -41.1662     2.0935    20.0998     4.9928     4.9987     5.0000     5.000
    132     1.0800     0.0000     0.9200     5.2001    14.7000     39.823      4.000 125071.000     30.000    57.4107   -20.0773   -35.1748   120.0962    -0.1480    -3.0001   -40.2445    99.3901    41.7549    -0.9992     0.0010    14.0000     4.0000     4.0000     2.0000    16.0000     4.0000     6.0000    10.0000    -2.0020     2.0025   159.4167   -41.1662     2.0935    19.9001     4.9945     5.0017     5.0000     5.000
    133     1.0800     0.0000     0.9200     4.9999    14.7000     40.296      3.000 125071.000     30.000    57.7013   -20.0773   -35.3590   120.0962    -0.1480    -3.0001   -40.0292    99.0669    41.9351    -0.9992     0.0010    14.0000     4.0000     4.0000     2.0000    16.0000     4.0000     6.0000    10.0000    -2.0020     2.0025   159.4167   -41.1662     2.0935    19.6999     5.0003     4.9971     5.0000     5.000
    134     1.0800     0.0000     0.9200     4.8003    14.7000     40.675      5.000 125071.000     30.000    57.9965   -20.0773   -35.5455   120.0962    -0.1480    -3.0001   -39.8130    98.7429    42.1134    -0.9992     0.0010    14.0000     4.0000     4.0000     2.0000    16.0000     4.0000     6.0000    10.0000    -2.0020     2.0025   159.4167   -41.1662     2.0934    19.5003     5.0060     4.9992     5.0000     5.000
    135     1.0800     0.0000     0.9199     4.5997    14.7000     40.603      3.000 125071.000     30.000    58.2962   -20.0773   -35.7360   120.0962    -0.1480    -3.0001   -39.5958    98.4168    42.2927    -0.9992     0.0010    14.0000     4.0000     4.0000     2.0000    16.0000     4.0000     6.0000    10.0000    -2.0020     2.0025   159.4167   -41.1662     2.0934    19.2997     4.9985     4.9993     5.0000     5.000
    136     1.0800     0.0000     0.9200     4.4001    14.7000     40.773      4.000 125071.000     30.000    58.6006   -20.0773   -35.9285   120.0962    -0.1480    -3.0001   -39.3776    98.0900    42.4725    -0.9992     0.0010    14.0000     4.0000     4.0000     2.0000    16.0000     4.0000     6.0000    10.0000    -2.0020     2.0025   159.4167   -41.1662     2.0935    19.1001     4.9953     4.9981     5.0000     5.000
    137     1.0800     0.0000     0.9201     4.2002    14.7000     41.150      8.000 125071.000     30.000    58.9098   -20.0773   -36.1245   120.0962    -0.1480    -3.0001   -39.1584    97.7614    42.6522    -0.9992     0.0010    14.0000     4.0000     4.0000     2.0000    16.0000     4.0000     6.0000    10.0000    -2.0020     2.0025   159.4167   -41.1662     2.0935    18.9002     4.9992     5.0002     5.0000     5.000
    138     1.0800     0.0000     0.9201     4.0000    14.7000     41.510      8.000 125071.000     30.000    59.2240   -20.0773   -36.3241   120.0962    -0.1480    -3.0001   -38.9382    97.4318    42.8317    -0.9992     0.0010    14.0000     4.0000     4.0000     2.0000    16.0000     4.0000     6.0000    10.0000    -2.0020     2.0025   159.4167   -41.1662     2.0936    18.7000     4.9956     4.9980     5.0000     5.000
    139     1.0800     0.0000     0.9201     3.7999    14.7000     42.311      7.000 125071.000     30.000    59.5433   -20.0773   -36.5269   120.0962    -0.1480    -3.0001   -38.7169    97.1004    43.0091    -0.9992     0.0010    14.0000     4.0000     4.0000     2.0000    16.0000     4.0000     6.0000    10.0000    -2.0020     2.0025   159.4167   -41.1662     2.0936    18.4999     5.0085     5.0014     5.0000     5.000
    140     1.0800     0.0000     0.9200     3.6001    14.7000     43.160      3.000 125071.000     30.000    59.8678   -20.0773   -36.7329   120.0962    -0.1480    -3.0001   -38.4946    96.7678    43.1851    -0.9992     0.0010    14.0000     4.0000     4.0000     2.0000    16.0000     4.0000     6.0000    10.0000    -2.0020     2.0025   159.4167   -41.1662     2.0935    18.3001     5.0062     4.9970     5.0000     5.000
    141     1.0800     0.0000     0.9200     3.4001    14.7000     44.005      4.000 125071.000     30.000    60.1976   -20.0773   -36.9425   120.0962    -0.1480    -3.0001   -38.2712    96.4334    43.3618    -0.9992     0.0010    14.0000     4.0000     4.0000     2.0000    16.0000     4.0000     6.0000    10.0000    -2.0020     2.0025   159.4167   -41.1662     2.0935    18.1001     5.0035     5.0025     5.0000     5.000
    142     1.0800     0.0000     0.9200     3.1998    14.7000     45.641      4.000 125071.000     30.000    60.5330   -20.0773   -37.1562   120.0962    -0.1480    -3.0001   -38.0467    96.0970    43.5376    -0.9992     0.0010    14.0000     4.0000     4.0000     2.0000    16.0000     4.0000     6.0000    10.0000    -2.0020     2.0025   159.4167   -41.1662     2.0935    17.8998     5.0044     4.9964     5.0000     5.000
    143     1.0800     0.0000     0.9200     3.0000    14.7000     47.670      3.000 125071.000     30.000    60.8740   -20.0773   -37.3730   120.0962    -0.1480    -3.0001   -37.8211    95.7595    43.7109    -0.9992     0.0010    14.0000     4.0000     4.0000     2.0000    16.0000     4.0000     6.0000    10.0000    -2.0020     2.0025   159.4167   -41.1662     2.0934    17.7000     4.9964     5.0013     5.0000     5.000
    144     1.0800     0.0000     0.9200     2.8003    14.7000     46.845      4.000 125071.000     30.000    61.2209   -20.0773   -37.5936   120.0962    -0.1480    -3.0001   -37.5944    95.4200    43.8872    -0.9992     0.0010    14.0000     4.0000     4.0000     2.0000    16.0000     4.0000     6.0000    10.0000    -2.0020     2.0025   159.4167   -41.1662     2.0935    17.5003     4.9957     5.0012     5.0000     5.000
    145     1.0800     0.0000     0.9200     2.5998    14.7000     46.112      4.000 125071.000     30.000    61.5738   -20.0773   -37.8190   120.0962    -0.1480    -3.0001   -37.3665    95.0789    44.0630    -0.9992     0.0010    14.0000     4.0000     4.0000     2.0000    16.0000     4.0000     6.0000    10.0000    -2.0020     2.0025   159.4167   -41.1662     2.0935    17.2998     5.0023     5.0013     5.0000     5.000
    146     1.0800     0.0000     0.9201     2.4001    14.7000     46.261      9.000 125071.000     30.000    61.9328   -20.0773   -38.0477   120.0962    -0.1480    -3.0001   -37.1375    94.7354    44.2388    -0.9992     0.0010    14.0000     4.0000     4.0000     2.0000    16.0000     4.0000     6.0000    10.0000    -2.0020     2.0025   159.4167   -41.1662     2.0936    17.1001     5.0038     5.0026     5.0000     5.000
    147     1.0800     0.0000     0.9200     2.1998    14.7000     46.587      5.000 125071.000     30.000    62.2982   -20.0773   -38.2811   120.0962    -0.1480    -3.0001   -36.9072    94.3904    44.4109    -0.9992     0.0010    14.0000     4.0000     4.0000     2.0000    16.0000     4.0000     6.0000    10.0000    -2.0020     2.0025   159.4167   -41.1662     2.0935    16.8998     5.0048     4.9981     5.0000     5.000
    148     1.0800     0.0000     0.9200     2.0001    14.7000     47.465      3.000 125071.000     30.000    62.6702   -20.0773   -38.5184   120.0962    -0.1480    -3.0001   -36.6758    94.0436    44.5847    -0.9992     0.0010    14.0000     4.0000     4.0000     2.0000    16.0000     4.0000     6.0000    10.0000    -2.0020     2.0025   159.4167   -41.1662     2.0935    16.7000     5.0049     4.9993     5.0000     5.000
    149     1.0800     0.0000     0.9200     1.7999    14.7000     48.103      1.000 125071.000     30.000    63.0488   -20.0773   -38.7606   120.0962    -0.1480    -3.0001   -36.4432    93.6942    44.7561    -0.9992     0.0010    14.0000     4.0000     4.0000     2.0000    16.0000     4.0000     6.0000    10.0000    -2.0020     2.0025   159.4167   -41.1662     2.0935    16.4999     5.0050     5.0025     5.0000     5.000
    150     1.0800     0.0000     0.9200     1.6001    14.7000     48.585      6.000 125071.000     30.000    63.4344   -20.0773   -39.0069   120.0962    -0.1480    -3.0001   -36.2092    93.3427    44.9276    -0.9992     0.0010    14.0000     4.0000     4.0000     2.0000    16.0000     4.0000     6.0000    10.0000    -2.0020     2.0025   159.4167   -41.1662     2.0935    16.3001     5.0025     4.9981     5.0000     5.000
    151     1.0800     0.0000     0.9200     1.4000    14.7000     49.298      5.000 125071.000     30.000    63.8273   -20.0773   -39.2586   120.0962    -0.1480    -3.0001   -35.9740    92.9894    45.0981    -0.9992     0.0010    14.0000     4.0000     4.0000     2.0000    16.0000     4.0000     6.0000    10.0000    -2.0020     2.0025   159.4167   -41.1662     2.0934    16.1000     5.0006     5.0019     5.0000     5.000
    152     1.0800     0.0000     0.9200     1.2000    14.7000     50.855     10.000 125071.000     30.000    64.2274   -20.0773   -39.5149   120.0962    -0.1480    -3.0001   -35.7375    92.6338    45.2709    -0.9992     0.0010    14.0000     4.0000     4.0000     2.0000    16.0000     4.0000     6.0000    10.0000    -2.0020     2.0025   159.4167   -41.1662     2.0935    15.9000     4.9958     5.0036     5.0000     5.000
    153     1.0800     0.0000     0.9201     1.0000    14.7000     53.591     24.000 125071.000     30.000    64.6352   -20.0773   -39.7763   120.0962    -0.1480    -3.0001   -35.4997    92.2752    45.4418    -0.9992     0.0010    14.0000     4.0000     4.0000     2.0000    16.0000     4.0000     6.0000    10.0000    -2.0020     2.0025   159.4167   -41.1662     2.0935    15.7000     4.9936     5.0023     5.0000     5.000
# Sum of Counts = 1664
# Center of Mass = 16.027194+/-0.583606
# Full Width Half-Maximum = 14.561607+/-0.339988
# 1:29:54 PM  10/28/2024   scan completed.
