# scan = 122
# date = 10/27/2024
# time = 8:13:03 PM
# proposal = 34735
# experiment = Magnons and paramagnon coupling in MnTe
# experiment_number = 823
# command = scan h 1.18 k 0.0 l 0.82 e 33.0 14.0 0.2 ef 14.7 preset mcu 60
# builtin_command = scan h 1.18 k 0.0 l 0.82 e 33.0 14.0 0.2 ef 14.7 preset mcu 60
# users = Benjamin Frandsen, Songxue Chi, George Yumnam, Huibo Cao, Michael Manley, Raphael Hermann, Eleanor Clements
# local_contact = Eleanor Clements
# scan_title = Scans H0L = (1.0, 0, 1.0) to (1.5, 0, 0.5) - Transverse at (1.18, 0.0, 0.82) - E = 33.0 to 14 mev
# monochromator = PG002
# analyzer = Pg002
# sense = -+-
# collimation = 48-40-40-120
# samplename = MnTe
# sampletype = crystal
# samplemosaic = 30.000000
# latticeconstants = 4.113532,4.113532,6.656209,90.000000,90.000000,120.000000
# ubmatrix = 0.008885,0.000200,-0.150137,0.280567,0.140284,0.004756,-0.000155,-0.243141,0.002621
# mode = 0
# plane_normal = 0.017452,-0.000000,0.999848
# ubconf = UB25Oct2024_84509PM.ini
# preset_type = normal 
# preset_channel = mcu
# preset_value = 60.000000
# def_x = e
# def_y = detector
# col_headers = 
#   Pt.          h          k          l          e         ef       time   detector    monitor        mcu focal_length         m1         m2   mcrystal       marc     mtrans     mfocus         s1         s2        sgl        sgu        bbb        bbl        bbr        bbt        bab        bal        bar        bat        stl        stu         a1         a2          q         ei        vti     sample       temp     temp_2
      1     1.1800     0.0000     0.8202    33.0028    14.7000     76.869     11.000 250141.000     60.000    37.0817   -20.0773   -22.5083   120.0962    -0.1480    -3.0001   -64.5042   149.6020     9.8205    -0.9995     0.0010    14.0000     4.0000     4.0000     2.0000    16.0000     4.0000     6.0000    10.0000    -2.0020     2.0025   159.4167   -41.1662     2.2205    47.7027     5.0008     5.0018     5.0000     5.000
      2     1.1800     0.0000     0.8199    32.8000    14.7000     76.597      6.000 250141.000     60.000    37.1597   -20.0773   -22.5569   120.0962    -0.1480    -3.0001   -64.3554   148.9260    10.3864    -0.9995     0.0010    14.0000     4.0000     4.0000     2.0000    16.0000     4.0000     6.0000    10.0000    -2.0020     2.0025   159.4167   -41.1662     2.2205    47.5000     4.9961     4.9990     5.0000     5.000
      3     1.1799     0.0000     0.8200    32.5991    14.7000     76.202     17.000 250141.000     60.000    37.2382   -20.0773   -22.6054   120.0962    -0.1480    -3.0001   -64.2063   148.2836    10.9152    -0.9995     0.0010    14.0000     4.0000     4.0000     2.0000    16.0000     4.0000     6.0000    10.0000    -2.0020     2.0025   159.4167   -41.1662     2.2204    47.2991     4.9949     4.9969     5.0000     5.000
      4     1.1801     0.0000     0.8199    32.4011    14.7000     75.754     16.000 250141.000     60.000    37.3172   -20.0773   -22.6535   120.0962    -0.1480    -3.0001   -64.0570   147.6689    11.4266    -0.9995     0.0010    14.0000     4.0000     4.0000     2.0000    16.0000     4.0000     6.0000    10.0000    -2.0020     2.0025   159.4167   -41.1662     2.2206    47.1011     4.9958     5.0030     5.0000     5.000
      5     1.1800     0.0000     0.8201    32.1999    14.7000     75.390     12.000 250141.000     60.000    37.3966   -20.0773   -22.7027   120.0962    -0.1480    -3.0001   -63.9074   147.0784    11.9101    -0.9995     0.0010    14.0000     4.0000     4.0000     2.0000    16.0000     4.0000     6.0000    10.0000    -2.0020     2.0025   159.4167   -41.1662     2.2205    46.8998     4.9984     5.0008     5.0000     5.000
      6     1.1800     0.0000     0.8199    31.9999    14.7000     74.935     14.000 250141.000     60.000    37.4766   -20.0773   -22.7519   120.0962    -0.1480    -3.0001   -63.7576   146.5096    12.3831    -0.9995     0.0010    14.0000     4.0000     4.0000     2.0000    16.0000     4.0000     6.0000    10.0000    -2.0020     2.0025   159.4167   -41.1662     2.2205    46.6999     4.9952     5.0017     5.0000     5.000
      7     1.1800     0.0000     0.8199    31.8000    14.7000     74.648     16.000 250141.000     60.000    37.5571   -20.0773   -22.8014   120.0962    -0.1480    -3.0001   -63.6075   145.9600    12.8362    -0.9995     0.0010    14.0000     4.0000     4.0000     2.0000    16.0000     4.0000     6.0000    10.0000    -2.0020     2.0025   159.4167   -41.1662     2.2205    46.5000     4.9972     4.9976     5.0000     5.000
      8     1.1800     0.0000     0.8200    31.5995    14.7000     74.130     17.000 250141.000     60.000    37.6382   -20.0773   -22.8513   120.0962    -0.1480    -3.0001   -63.4572   145.4273    13.2736    -0.9995     0.0010    14.0000     4.0000     4.0000     2.0000    16.0000     4.0000     6.0000    10.0000    -2.0020     2.0025   159.4167   -41.1662     2.2205    46.2995     5.0045     5.0018     5.0000     5.000
      9     1.1800     0.0000     0.8201    31.4002    14.7000     74.188      9.000 250141.000     60.000    37.7197   -20.0773   -22.9014   120.0962    -0.1480    -3.0001   -63.3065   144.9102    13.6969    -0.9995     0.0010    14.0000     4.0000     4.0000     2.0000    16.0000     4.0000     6.0000    10.0000    -2.0020     2.0025   159.4167   -41.1662     2.2205    46.1002     5.0037     4.9975     5.0000     5.000
     10     1.1800     0.0000     0.8201    31.2007    14.7000     73.322     13.000 250141.000     60.000    37.8018   -20.0773   -22.9517   120.0962    -0.1480    -3.0001   -63.1557   144.4070    14.1114    -0.9995     0.0010    14.0000     4.0000     4.0000     2.0000    16.0000     4.0000     6.0000    10.0000    -2.0020     2.0025   159.4167   -41.1662     2.2205    45.9007     5.0077     4.9980     5.0000     5.000
     11     1.1800     0.0000     0.8199    30.9996    14.7000     73.477     18.000 250141.000     60.000    37.8844   -20.0773   -23.0029   120.0962    -0.1480    -3.0001   -63.0045   143.9169    14.5168    -0.9995     0.0010    14.0000     4.0000     4.0000     2.0000    16.0000     4.0000     6.0000    10.0000    -2.0020     2.0025   159.4167   -41.1662     2.2205    45.6996     4.9975     4.9969     5.0000     5.000
     12     1.1800     0.0000     0.8199    30.7994    14.7000     72.899     16.000 250141.000     60.000    37.9676   -20.0773   -23.0541   120.0962    -0.1480    -3.0001   -62.8531   143.4383    14.9095    -0.9995     0.0010    14.0000     4.0000     4.0000     2.0000    16.0000     4.0000     6.0000    10.0000    -2.0020     2.0025   159.4167   -41.1662     2.2205    45.4994     5.0064     5.0003     5.0000     5.000
     13     1.1800     0.0000     0.8200    30.5998    14.7000     72.604     19.000 250141.000     60.000    38.0513   -20.0773   -23.1056   120.0962    -0.1480    -3.0001   -62.7014   142.9704    15.2935    -0.9995     0.0010    14.0000     4.0000     4.0000     2.0000    16.0000     4.0000     6.0000    10.0000    -2.0020     2.0025   159.4167   -41.1662     2.2205    45.2998     4.9971     4.9995     5.0000     5.000
     14     1.1800     0.0000     0.8200    30.4000    14.7000     72.598     31.000 250141.000     60.000    38.1356   -20.0773   -23.1574   120.0962    -0.1480    -3.0001   -62.5495   142.5130    15.6666    -0.9995     0.0010    14.0000     4.0000     4.0000     2.0000    16.0000     4.0000     6.0000    10.0000    -2.0020     2.0025   159.4167   -41.1662     2.2205    45.1000     4.9949     5.0017     5.0000     5.000
     15     1.1800     0.0000     0.8200    30.2005    14.7000     72.085     24.000 250141.000     60.000    38.2204   -20.0773   -23.2095   120.0962    -0.1480    -3.0001   -62.3973   142.0644    16.0359    -0.9995     0.0010    14.0000     4.0000     4.0000     2.0000    16.0000     4.0000     6.0000    10.0000    -2.0020     2.0025   159.4167   -41.1662     2.2206    44.9005     4.9973     4.9985     5.0000     5.000
     16     1.1800     0.0000     0.8200    30.0004    14.7000     71.751     20.000 250141.000     60.000    38.3059   -20.0773   -23.2621   120.0962    -0.1480    -3.0001   -62.2448   141.6244    16.3953    -0.9995     0.0010    14.0000     4.0000     4.0000     2.0000    16.0000     4.0000     6.0000    10.0000    -2.0020     2.0025   159.4167   -41.1662     2.2206    44.7004     4.9945     5.0019     5.0000     5.000
     17     1.1800     0.0000     0.8199    29.7992    14.7000     71.514     25.000 250141.000     60.000    38.3918   -20.0773   -23.3154   120.0962    -0.1480    -3.0001   -62.0920   141.1930    16.7475    -0.9995     0.0010    14.0000     4.0000     4.0000     2.0000    16.0000     4.0000     6.0000    10.0000    -2.0020     2.0025   159.4167   -41.1662     2.2205    44.4992     4.9968     5.0020     5.0000     5.000
     18     1.1800     0.0000     0.8201    29.6011    14.7000     71.318     27.000 250141.000     60.000    38.4784   -20.0773   -23.3682   120.0962    -0.1480    -3.0001   -61.9390   140.7688    17.0920    -0.9995     0.0010    14.0000     4.0000     4.0000     2.0000    16.0000     4.0000     6.0000    10.0000    -2.0020     2.0025   159.4167   -41.1662     2.2205    44.3011     5.0051     5.0009     5.0000     5.000
     19     1.1800     0.0000     0.8199    29.3997    14.7000     71.320     28.000 250141.000     60.000    38.5656   -20.0773   -23.4222   120.0962    -0.1480    -3.0001   -61.7856   140.3512    17.4357    -0.9995     0.0010    14.0000     4.0000     4.0000     2.0000    16.0000     4.0000     6.0000    10.0000    -2.0020     2.0025   159.4167   -41.1662     2.2205    44.0997     4.9995     5.0009     5.0000     5.000
     20     1.1800     0.0000     0.8200    29.1999    14.7000     71.018     42.000 250141.000     60.000    38.6533   -20.0773   -23.4762   120.0962    -0.1480    -3.0001   -61.6320   139.9410    17.7699    -0.9995     0.0010    14.0000     4.0000     4.0000     2.0000    16.0000     4.0000     6.0000    10.0000    -2.0020     2.0025   159.4167   -41.1662     2.2205    43.8999     5.0029     4.9962     5.0000     5.000
     21     1.1800     0.0000     0.8200    28.9998    14.7000     70.818     38.000 250141.000     60.000    38.7417   -20.0773   -23.5307   120.0962    -0.1480    -3.0001   -61.4781   139.5369    18.0959    -0.9995     0.0010    14.0000     4.0000     4.0000     2.0000    16.0000     4.0000     6.0000    10.0000    -2.0020     2.0025   159.4167   -41.1662     2.2204    43.6998     5.0062     5.0007     5.0000     5.000
     22     1.1800     0.0000     0.8200    28.8006    14.7000     70.777     35.000 250141.000     60.000    38.8306   -20.0773   -23.5853   120.0962    -0.1480    -3.0001   -61.3240   139.1388    18.4233    -0.9995     0.0010    14.0000     4.0000     4.0000     2.0000    16.0000     4.0000     6.0000    10.0000    -2.0020     2.0025   159.4167   -41.1662     2.2206    43.5006     5.0048     5.0028     5.0000     5.000
     23     1.1800     0.0000     0.8200    28.5993    14.7000     70.573     32.000 250141.000     60.000    38.9202   -20.0773   -23.6408   120.0962    -0.1480    -3.0001   -61.1695   138.7454    18.7412    -0.9995     0.0010    14.0000     4.0000     4.0000     2.0000    16.0000     4.0000     6.0000    10.0000    -2.0020     2.0025   159.4167   -41.1662     2.2205    43.2993     4.9975     4.9963     5.0000     5.000
     24     1.1800     0.0000     0.8200    28.4006    14.7000     70.778     30.000 250141.000     60.000    39.0104   -20.0773   -23.6960   120.0962    -0.1480    -3.0001   -61.0148   138.3588    19.0563    -0.9995     0.0010    14.0000     4.0000     4.0000     2.0000    16.0000     4.0000     6.0000    10.0000    -2.0020     2.0025   159.4167   -41.1662     2.2206    43.1006     5.0050     4.9987     5.0000     5.000
     25     1.1800     0.0000     0.8200    28.1998    14.7000     70.636     47.000 250141.000     60.000    39.1012   -20.0773   -23.7522   120.0962    -0.1480    -3.0001   -60.8597   137.9758    19.3664    -0.9995     0.0010    14.0000     4.0000     4.0000     2.0000    16.0000     4.0000     6.0000    10.0000    -2.0020     2.0025   159.4167   -41.1662     2.2205    42.8998     4.9966     5.0006     5.0000     5.000
     26     1.1800     0.0000     0.8200    27.9998    14.7000     70.514     30.000 250141.000     60.000    39.1927   -20.0773   -23.8086   120.0962    -0.1480    -3.0001   -60.7044   137.5985    19.6709    -0.9995     0.0010    14.0000     4.0000     4.0000     2.0000    16.0000     4.0000     6.0000    10.0000    -2.0020     2.0025   159.4167   -41.1662     2.2205    42.6998     5.0080     5.0009     5.0000     5.000
     27     1.1800     0.0000     0.8200    27.7998    14.7000     70.182     33.000 250141.000     60.000    39.2848   -20.0773   -23.8654   120.0962    -0.1480    -3.0001   -60.5487   137.2250    19.9740    -0.9995     0.0010    14.0000     4.0000     4.0000     2.0000    16.0000     4.0000     6.0000    10.0000    -2.0020     2.0025   159.4167   -41.1662     2.2205    42.4998     5.0073     4.9980     5.0000     5.000
     28     1.1800     0.0000     0.8200    27.6004    14.7000     70.086     22.000 250141.000     60.000    39.3775   -20.0773   -23.9224   120.0962    -0.1480    -3.0001   -60.3928   136.8562    20.2711    -0.9995     0.0010    14.0000     4.0000     4.0000     2.0000    16.0000     4.0000     6.0000    10.0000    -2.0020     2.0025   159.4167   -41.1662     2.2205    42.3004     4.9992     5.0046     5.0000     5.000
     29     1.1800     0.0000     0.8200    27.3999    14.7000     69.460     28.000 250141.000     60.000    39.4710   -20.0773   -23.9802   120.0962    -0.1480    -3.0001   -60.2366   136.4919    20.5662    -0.9995     0.0010    14.0000     4.0000     4.0000     2.0000    16.0000     4.0000     6.0000    10.0000    -2.0020     2.0025   159.4167   -41.1662     2.2205    42.0999     5.0073     5.0001     5.0000     5.000
     30     1.1800     0.0000     0.8200    27.2001    14.7000     69.045     32.000 250141.000     60.000    39.5651   -20.0773   -24.0381   120.0962    -0.1480    -3.0001   -60.0800   136.1306    20.8579    -0.9995     0.0010    14.0000     4.0000     4.0000     2.0000    16.0000     4.0000     6.0000    10.0000    -2.0020     2.0025   159.4167   -41.1662     2.2205    41.9001     5.0021     4.9989     5.0000     5.000
     31     1.1800     0.0000     0.8200    26.9995    14.7000     68.380     32.000 250141.000     60.000    39.6598   -20.0773   -24.0967   120.0962    -0.1480    -3.0001   -59.9232   135.7741    21.1459    -0.9995     0.0010    14.0000     4.0000     4.0000     2.0000    16.0000     4.0000     6.0000    10.0000    -2.0020     2.0025   159.4167   -41.1662     2.2205    41.6995     5.0069     4.9996     5.0000     5.000
     32     1.1801     0.0000     0.8200    26.8004    14.7000     67.895     35.000 250141.000     60.000    39.7553   -20.0773   -24.1553   120.0962    -0.1480    -3.0001   -59.7660   135.4201    21.4329    -0.9995     0.0010    14.0000     4.0000     4.0000     2.0000    16.0000     4.0000     6.0000    10.0000    -2.0020     2.0025   159.4167   -41.1662     2.2206    41.5004     5.0063     4.9991     5.0000     5.000
     33     1.1799     0.0000     0.8200    26.5996    14.7000     67.276     31.000 250141.000     60.000    39.8514   -20.0773   -24.2149   120.0962    -0.1480    -3.0001   -59.6086   135.0704    21.7105    -0.9995     0.0010    14.0000     4.0000     4.0000     2.0000    16.0000     4.0000     6.0000    10.0000    -2.0020     2.0025   159.4167   -41.1662     2.2204    41.2996     4.9955     4.9989     5.0000     5.000
     34     1.1800     0.0000     0.8200    26.4003    14.7000     66.661     31.000 250141.000     60.000    39.9483   -20.0773   -24.2744   120.0962    -0.1480    -3.0001   -59.4508   134.7234    21.9920    -0.9995     0.0010    14.0000     4.0000     4.0000     2.0000    16.0000     4.0000     6.0000    10.0000    -2.0020     2.0025   159.4167   -41.1662     2.2206    41.1003     5.0059     4.9979     5.0000     5.000
     35     1.1800     0.0000     0.8200    26.2006    14.7000     66.010     30.000 250141.000     60.000    40.0458   -20.0773   -24.3345   120.0962    -0.1480    -3.0001   -59.2927   134.3798    22.2664    -0.9995     0.0010    14.0000     4.0000     4.0000     2.0000    16.0000     4.0000     6.0000    10.0000    -2.0020     2.0025   159.4167   -41.1662     2.2205    40.9006     4.9960     4.9989     5.0000     5.000
     36     1.1800     0.0000     0.8200    25.9995    14.7000     65.679     40.000 250141.000     60.000    40.1441   -20.0773   -24.3955   120.0962    -0.1480    -3.0001   -59.1343   134.0393    22.5404    -0.9995     0.0010    14.0000     4.0000     4.0000     2.0000    16.0000     4.0000     6.0000    10.0000    -2.0020     2.0025   159.4167   -41.1662     2.2205    40.6995     4.9975     5.0026     5.0000     5.000
     37     1.1800     0.0000     0.8200    25.7995    14.7000     65.174     43.000 250141.000     60.000    40.2431   -20.0773   -24.4566   120.0962    -0.1480    -3.0001   -58.9756   133.7010    22.8120    -0.9995     0.0010    14.0000     4.0000     4.0000     2.0000    16.0000     4.0000     6.0000    10.0000    -2.0020     2.0025   159.4167   -41.1662     2.2205    40.4995     5.0031     5.0017     5.0000     5.000
     38     1.1800     0.0000     0.8200    25.6005    14.7000     64.392     30.000 250141.000     60.000    40.3428   -20.0773   -24.5178   120.0962    -0.1480    -3.0001   -58.8166   133.3663    23.0774    -0.9995     0.0010    14.0000     4.0000     4.0000     2.0000    16.0000     4.0000     6.0000    10.0000    -2.0020     2.0025   159.4167   -41.1662     2.2205    40.3005     5.0041     5.0002     5.0000     5.000
     39     1.1800     0.0000     0.8200    25.4005    14.7000     64.559     40.000 250141.000     60.000    40.4433   -20.0773   -24.5798   120.0962    -0.1480    -3.0001   -58.6572   133.0344    23.3443    -0.9995     0.0010    14.0000     4.0000     4.0000     2.0000    16.0000     4.0000     6.0000    10.0000    -2.0020     2.0025   159.4167   -41.1662     2.2205    40.1005     5.0006     4.9978     5.0000     5.000
     40     1.1800     0.0000     0.8200    25.2005    14.7000     64.056     28.000 250141.000     60.000    40.5446   -20.0773   -24.6423   120.0962    -0.1480    -3.0001   -58.4975   132.7041    23.6073    -0.9995     0.0010    14.0000     4.0000     4.0000     2.0000    16.0000     4.0000     6.0000    10.0000    -2.0020     2.0025   159.4167   -41.1662     2.2205    39.9005     4.9970     5.0021     5.0000     5.000
     41     1.1800     0.0000     0.8200    24.9994    14.7000     63.757     29.000 250141.000     60.000    40.6465   -20.0773   -24.7056   120.0962    -0.1480    -3.0001   -58.3375   132.3765    23.8705    -0.9995     0.0010    14.0000     4.0000     4.0000     2.0000    16.0000     4.0000     6.0000    10.0000    -2.0020     2.0025   159.4167   -41.1662     2.2205    39.6993     4.9999     5.0024     5.0000     5.000
     42     1.1800     0.0000     0.8200    24.8005    14.7000     63.562     20.000 250141.000     60.000    40.7493   -20.0773   -24.7687   120.0962    -0.1480    -3.0001   -58.1772   132.0519    24.1260    -0.9995     0.0010    14.0000     4.0000     4.0000     2.0000    16.0000     4.0000     6.0000    10.0000    -2.0020     2.0025   159.4167   -41.1662     2.2205    39.5005     5.0022     5.0004     5.0000     5.000
     43     1.1800     0.0000     0.8200    24.5999    14.7000     63.662     37.000 250141.000     60.000    40.8529   -20.0773   -24.8329   120.0962    -0.1480    -3.0001   -58.0165   131.7293    24.3857    -0.9995     0.0010    14.0000     4.0000     4.0000     2.0000    16.0000     4.0000     6.0000    10.0000    -2.0020     2.0025   159.4167   -41.1662     2.2206    39.2999     4.9949     5.0008     5.0000     5.000
     44     1.1800     0.0000     0.8200    24.3998    14.7000     63.807     34.000 250141.000     60.000    40.9572   -20.0773   -24.8973   120.0962    -0.1480    -3.0001   -57.8555   131.4084    24.6404    -0.9995     0.0010    14.0000     4.0000     4.0000     2.0000    16.0000     4.0000     6.0000    10.0000    -2.0020     2.0025   159.4167   -41.1662     2.2205    39.0998     4.9963     4.9983     5.0000     5.000
     45     1.1800     0.0000     0.8200    24.2002    14.7000     63.721     33.000 250141.000     60.000    41.0624   -20.0773   -24.9622   120.0962    -0.1480    -3.0001   -57.6941   131.0900    24.8927    -0.9995     0.0010    14.0000     4.0000     4.0000     2.0000    16.0000     4.0000     6.0000    10.0000    -2.0020     2.0025   159.4167   -41.1662     2.2205    38.9002     4.9952     4.9980     5.0000     5.000
     46     1.1800     0.0000     0.8200    23.9999    14.7000     64.133     39.000 250141.000     60.000    41.1683   -20.0773   -25.0277   120.0962    -0.1480    -3.0001   -57.5324   130.7739    25.1420    -0.9995     0.0010    14.0000     4.0000     4.0000     2.0000    16.0000     4.0000     6.0000    10.0000    -2.0020     2.0025   159.4167   -41.1662     2.2205    38.6999     5.0069     5.0030     5.0000     5.000
     47     1.1800     0.0000     0.8200    23.8006    14.7000     64.265     24.000 250141.000     60.000    41.2751   -20.0773   -25.0935   120.0962    -0.1480    -3.0001   -57.3704   130.4589    25.3925    -0.9995     0.0010    14.0000     4.0000     4.0000     2.0000    16.0000     4.0000     6.0000    10.0000    -2.0020     2.0025   159.4167   -41.1662     2.2206    38.5006     5.0079     4.9997     5.0000     5.000
     48     1.1800     0.0000     0.8200    23.5999    14.7000     64.795     32.000 250141.000     60.000    41.3828   -20.0773   -25.1602   120.0962    -0.1480    -3.0001   -57.2080   130.1463    25.6402    -0.9995     0.0010    14.0000     4.0000     4.0000     2.0000    16.0000     4.0000     6.0000    10.0000    -2.0020     2.0025   159.4167   -41.1662     2.2205    38.2999     5.0008     4.9977     5.0000     5.000
     49     1.1800     0.0000     0.8200    23.3993    14.7000     65.222     27.000 250141.000     60.000    41.4912   -20.0773   -25.2275   120.0962    -0.1480    -3.0001   -57.0453   129.8357    25.8835    -0.9995     0.0010    14.0000     4.0000     4.0000     2.0000    16.0000     4.0000     6.0000    10.0000    -2.0020     2.0025   159.4167   -41.1662     2.2204    38.0993     4.9962     5.0001     5.0000     5.000
     50     1.1800     0.0000     0.8200    23.1998    14.7000     65.856     19.000 250141.000     60.000    41.6006   -20.0773   -25.2949   120.0962    -0.1480    -3.0001   -56.8822   129.5265    26.1272    -0.9995     0.0010    14.0000     4.0000     4.0000     2.0000    16.0000     4.0000     6.0000    10.0000    -2.0020     2.0025   159.4167   -41.1662     2.2205    37.8998     4.9918     4.9991     5.0000     5.000
     51     1.1800     0.0000     0.8200    23.0003    14.7000     66.242     27.000 250141.000     60.000    41.7108   -20.0773   -25.3628   120.0962    -0.1480    -3.0001   -56.7188   129.2195    26.3717    -0.9995     0.0010    14.0000     4.0000     4.0000     2.0000    16.0000     4.0000     6.0000    10.0000    -2.0020     2.0025   159.4167   -41.1662     2.2206    37.7003     4.9988     5.0019     5.0000     5.000
     52     1.1800     0.0000     0.8200    22.8002    14.7000     67.418     17.000 250141.000     60.000    41.8218   -20.0773   -25.4315   120.0962    -0.1480    -3.0001   -56.5550   128.9137    26.6116    -0.9995     0.0010    14.0000     4.0000     4.0000     2.0000    16.0000     4.0000     6.0000    10.0000    -2.0020     2.0025   159.4167   -41.1662     2.2205    37.5002     5.0051     4.9998     5.0000     5.000
     53     1.1800     0.0000     0.8200    22.6012    14.7000     67.457     21.000 250141.000     60.000    41.9338   -20.0773   -25.5004   120.0962    -0.1480    -3.0001   -56.3908   128.6093    26.8512    -0.9995     0.0010    14.0000     4.0000     4.0000     2.0000    16.0000     4.0000     6.0000    10.0000    -2.0020     2.0025   159.4167   -41.1662     2.2206    37.3012     5.0022     4.9991     5.0000     5.000
     54     1.1800     0.0000     0.8200    22.3990    14.7000     68.102     18.000 250141.000     60.000    42.0467   -20.0773   -25.5710   120.0962    -0.1480    -3.0001   -56.2263   128.3063    27.0876    -0.9995     0.0010    14.0000     4.0000     4.0000     2.0000    16.0000     4.0000     6.0000    10.0000    -2.0020     2.0025   159.4167   -41.1662     2.2205    37.0990     5.0020     5.0051     5.0000     5.000
     55     1.1799     0.0000     0.8200    22.2002    14.7000     68.611     12.000 250141.000     60.000    42.1605   -20.0773   -25.6409   120.0962    -0.1480    -3.0001   -56.0614   128.0054    27.3217    -0.9995     0.0010    14.0000     4.0000     4.0000     2.0000    16.0000     4.0000     6.0000    10.0000    -2.0020     2.0025   159.4167   -41.1662     2.2204    36.9002     5.0035     4.9988     5.0000     5.000
     56     1.1800     0.0000     0.8200    21.9999    14.7000     69.016     22.000 250141.000     60.000    42.2752   -20.0773   -25.7120   120.0962    -0.1480    -3.0001   -55.8961   127.7055    27.5591    -0.9995     0.0010    14.0000     4.0000     4.0000     2.0000    16.0000     4.0000     6.0000    10.0000    -2.0020     2.0025   159.4167   -41.1662     2.2205    36.6999     5.0020     5.0020     5.0000     5.000
     57     1.1800     0.0000     0.8200    21.8000    14.7000     69.434     18.000 250141.000     60.000    42.3909   -20.0773   -25.7835   120.0962    -0.1480    -3.0001   -55.7305   127.4071    27.7931    -0.9995     0.0010    14.0000     4.0000     4.0000     2.0000    16.0000     4.0000     6.0000    10.0000    -2.0020     2.0025   159.4167   -41.1662     2.2206    36.5000     5.0073     5.0014     5.0000     5.000
     58     1.1800     0.0000     0.8200    21.5998    14.7000     69.974     20.000 250141.000     60.000    42.5075   -20.0773   -25.8557   120.0962    -0.1480    -3.0001   -55.5645   127.1100    28.0258    -0.9995     0.0010    14.0000     4.0000     4.0000     2.0000    16.0000     4.0000     6.0000    10.0000    -2.0020     2.0025   159.4167   -41.1662     2.2206    36.2998     4.9970     5.0001     5.0000     5.000
     59     1.1800     0.0000     0.8200    21.3998    14.7000     70.207     16.000 250141.000     60.000    42.6251   -20.0773   -25.9285   120.0962    -0.1480    -3.0001   -55.3981   126.8140    28.2557    -0.9995     0.0010    14.0000     4.0000     4.0000     2.0000    16.0000     4.0000     6.0000    10.0000    -2.0020     2.0025   159.4167   -41.1662     2.2205    36.0998     4.9994     4.9981     5.0000     5.000
     60     1.1800     0.0000     0.8200    21.1997    14.7000     70.078     17.000 250141.000     60.000    42.7436   -20.0773   -26.0019   120.0962    -0.1480    -3.0001   -55.2313   126.5191    28.4833    -0.9995     0.0010    14.0000     4.0000     4.0000     2.0000    16.0000     4.0000     6.0000    10.0000    -2.0020     2.0025   159.4167   -41.1662     2.2205    35.8997     5.0076     4.9966     5.0000     5.000
     61     1.1799     0.0000     0.8200    21.0000    14.7000     69.938     17.000 250141.000     60.000    42.8632   -20.0773   -26.0758   120.0962    -0.1480    -3.0001   -55.0642   126.2254    28.7107    -0.9995     0.0010    14.0000     4.0000     4.0000     2.0000    16.0000     4.0000     6.0000    10.0000    -2.0020     2.0025   159.4167   -41.1662     2.2204    35.7000     4.9946     5.0029     5.0000     5.000
     62     1.1800     0.0000     0.8200    20.8002    14.7000     70.148     15.000 250141.000     60.000    42.9838   -20.0773   -26.1504   120.0962    -0.1480    -3.0001   -54.8966   125.9335    28.9394    -0.9995     0.0010    14.0000     4.0000     4.0000     2.0000    16.0000     4.0000     6.0000    10.0000    -2.0020     2.0025   159.4167   -41.1662     2.2205    35.5002     4.9993     5.0023     5.0000     5.000
     63     1.1800     0.0000     0.8200    20.6001    14.7000     70.400     17.000 250141.000     60.000    43.1054   -20.0773   -26.2257   120.0962    -0.1480    -3.0001   -54.7287   125.6415    29.1666    -0.9995     0.0010    14.0000     4.0000     4.0000     2.0000    16.0000     4.0000     6.0000    10.0000    -2.0020     2.0025   159.4167   -41.1662     2.2206    35.3001     4.9954     4.9993     5.0000     5.000
     64     1.1800     0.0000     0.8200    20.4002    14.7000     70.059     14.000 250141.000     60.000    43.2280   -20.0773   -26.3017   120.0962    -0.1480    -3.0001   -54.5603   125.3515    29.3918    -0.9995     0.0010    14.0000     4.0000     4.0000     2.0000    16.0000     4.0000     6.0000    10.0000    -2.0020     2.0025   159.4167   -41.1662     2.2206    35.1002     5.0066     5.0038     5.0000     5.000
     65     1.1800     0.0000     0.8200    20.1998    14.7000     70.281     14.000 250141.000     60.000    43.3517   -20.0773   -26.3784   120.0962    -0.1480    -3.0001   -54.3916   125.0624    29.6150    -0.9995     0.0010    14.0000     4.0000     4.0000     2.0000    16.0000     4.0000     6.0000    10.0000    -2.0020     2.0025   159.4167   -41.1662     2.2206    34.8998     4.9962     4.9991     5.0000     5.000
     66     1.1800     0.0000     0.8200    19.9996    14.7000     70.518      9.000 250141.000     60.000    43.4765   -20.0773   -26.4558   120.0962    -0.1480    -3.0001   -54.2224   124.7740    29.8380    -0.9995     0.0010    14.0000     4.0000     4.0000     2.0000    16.0000     4.0000     6.0000    10.0000    -2.0020     2.0025   159.4167   -41.1662     2.2206    34.6996     4.9976     4.9975     5.0000     5.000
     67     1.1800     0.0000     0.8201    19.8008    14.7000     70.878     12.000 250141.000     60.000    43.6023   -20.0773   -26.5333   120.0962    -0.1480    -3.0001   -54.0529   124.4860    30.0579    -0.9995     0.0010    14.0000     4.0000     4.0000     2.0000    16.0000     4.0000     6.0000    10.0000    -2.0020     2.0025   159.4167   -41.1662     2.2206    34.5008     4.9949     5.0007     5.0000     5.000
     68     1.1800     0.0000     0.8200    19.6002    14.7000     71.424     17.000 250141.000     60.000    43.7292   -20.0773   -26.6122   120.0962    -0.1480    -3.0001   -53.8830   124.2000    30.2768    -0.9995     0.0010    14.0000     4.0000     4.0000     2.0000    16.0000     4.0000     6.0000    10.0000    -2.0020     2.0025   159.4167   -41.1662     2.2205    34.3002     5.0014     4.9965     5.0000     5.000
     69     1.1799     0.0000     0.8200    19.3996    14.7000     71.969     11.000 250141.000     60.000    43.8573   -20.0773   -26.6918   120.0962    -0.1480    -3.0001   -53.7126   123.9142    30.4955    -0.9995     0.0010    14.0000     4.0000     4.0000     2.0000    16.0000     4.0000     6.0000    10.0000    -2.0020     2.0025   159.4167   -41.1662     2.2204    34.0996     4.9953     5.0032     5.0000     5.000
     70     1.1799     0.0000     0.8200    19.2000    14.7000     72.288     14.000 250141.000     60.000    43.9865   -20.0773   -26.7717   120.0962    -0.1480    -3.0001   -53.5418   123.6292    30.7144    -0.9995     0.0010    14.0000     4.0000     4.0000     2.0000    16.0000     4.0000     6.0000    10.0000    -2.0020     2.0025   159.4167   -41.1662     2.2204    33.9000     4.9918     5.0002     5.0000     5.000
     71     1.1800     0.0000     0.8200    18.9997    14.7000     72.919     11.000 250141.000     60.000    44.1168   -20.0773   -26.8527   120.0962    -0.1480    -3.0001   -53.3706   123.3450    30.9337    -0.9995     0.0010    14.0000     4.0000     4.0000     2.0000    16.0000     4.0000     6.0000    10.0000    -2.0020     2.0025   159.4167   -41.1662     2.2205    33.6996     5.0037     4.9992     5.0000     5.000
     72     1.1800     0.0000     0.8200    18.7999    14.7000     73.580     11.000 250141.000     60.000    44.2483   -20.0773   -26.9341   120.0962    -0.1480    -3.0001   -53.1990   123.0618    31.1506    -0.9995     0.0010    14.0000     4.0000     4.0000     2.0000    16.0000     4.0000     6.0000    10.0000    -2.0020     2.0025   159.4167   -41.1662     2.2205    33.4999     5.0044     5.0020     5.0000     5.000
     73     1.1800     0.0000     0.8200    18.6005    14.7000     74.086     12.000 250141.000     60.000    44.3810   -20.0773   -27.0161   120.0962    -0.1480    -3.0001   -53.0269   122.7794    31.3670    -0.9995     0.0010    14.0000     4.0000     4.0000     2.0000    16.0000     4.0000     6.0000    10.0000    -2.0020     2.0025   159.4167   -41.1662     2.2206    33.3005     4.9976     4.9999     5.0000     5.000
     74     1.1800     0.0000     0.8200    18.3999    14.7000     74.059      9.000 250141.000     60.000    44.5149   -20.0773   -27.0994   120.0962    -0.1480    -3.0001   -52.8544   122.4973    31.5815    -0.9995     0.0010    14.0000     4.0000     4.0000     2.0000    16.0000     4.0000     6.0000    10.0000    -2.0020     2.0025   159.4167   -41.1662     2.2205    33.0999     4.9980     5.0037     5.0000     5.000
     75     1.1800     0.0000     0.8200    18.2002    14.7000     74.450     16.000 250141.000     60.000    44.6500   -20.0773   -27.1832   120.0962    -0.1480    -3.0001   -52.6815   122.2160    31.7967    -0.9995     0.0010    14.0000     4.0000     4.0000     2.0000    16.0000     4.0000     6.0000    10.0000    -2.0020     2.0025   159.4167   -41.1662     2.2206    32.9001     4.9983     4.9999     5.0000     5.000
     76     1.1800     0.0000     0.8200    18.0001    14.7000     74.936      8.000 250141.000     60.000    44.7863   -20.0773   -27.2678   120.0962    -0.1480    -3.0001   -52.5081   121.9355    32.0091    -0.9995     0.0010    14.0000     4.0000     4.0000     2.0000    16.0000     4.0000     6.0000    10.0000    -2.0020     2.0025   159.4167   -41.1662     2.2206    32.7001     4.9950     5.0013     5.0000     5.000
     77     1.1800     0.0000     0.8200    17.7998    14.7000     75.079     12.000 250141.000     60.000    44.9239   -20.0773   -27.3533   120.0962    -0.1480    -3.0001   -52.3343   121.6554    32.2223    -0.9995     0.0010    14.0000     4.0000     4.0000     2.0000    16.0000     4.0000     6.0000    10.0000    -2.0020     2.0025   159.4167   -41.1662     2.2206    32.4997     5.0053     4.9935     5.0000     5.000
     78     1.1801     0.0000     0.8200    17.6000    14.7000     75.774     10.000 250141.000     60.000    45.0627   -20.0773   -27.4394   120.0962    -0.1480    -3.0001   -52.1600   121.3759    32.4345    -0.9995     0.0010    14.0000     4.0000     4.0000     2.0000    16.0000     4.0000     6.0000    10.0000    -2.0020     2.0025   159.4167   -41.1662     2.2206    32.3000     5.0060     4.9991     5.0000     5.000
     79     1.1800     0.0000     0.8200    17.4002    14.7000     75.878      5.000 250141.000     60.000    45.2029   -20.0773   -27.5264   120.0962    -0.1480    -3.0001   -51.9853   121.0971    32.6435    -0.9995     0.0010    14.0000     4.0000     4.0000     2.0000    16.0000     4.0000     6.0000    10.0000    -2.0020     2.0025   159.4167   -41.1662     2.2206    32.1002     4.9955     4.9970     5.0000     5.000
     80     1.1800     0.0000     0.8200    17.1998    14.7000     76.175      9.000 250141.000     60.000    45.3444   -20.0773   -27.6144   120.0962    -0.1480    -3.0001   -51.8102   120.8189    32.8538    -0.9995     0.0010    14.0000     4.0000     4.0000     2.0000    16.0000     4.0000     6.0000    10.0000    -2.0020     2.0025   159.4167   -41.1662     2.2206    31.8998     5.0029     5.0018     5.0000     5.000
     81     1.1800     0.0000     0.8200    16.9998    14.7000     76.506     11.000 250141.000     60.000    45.4872   -20.0773   -27.7031   120.0962    -0.1480    -3.0001   -51.6345   120.5405    33.0634    -0.9995     0.0010    14.0000     4.0000     4.0000     2.0000    16.0000     4.0000     6.0000    10.0000    -2.0020     2.0025   159.4167   -41.1662     2.2206    31.6998     5.0011     4.9957     5.0000     5.000
     82     1.1800     0.0000     0.8200    16.8005    14.7000     76.878     13.000 250141.000     60.000    45.6314   -20.0773   -27.7924   120.0962    -0.1480    -3.0001   -51.4584   120.2635    33.2697    -0.9995     0.0010    14.0000     4.0000     4.0000     2.0000    16.0000     4.0000     6.0000    10.0000    -2.0020     2.0025   159.4167   -41.1662     2.2205    31.5005     4.9953     5.0014     5.0000     5.000
     83     1.1800     0.0000     0.8200    16.5998    14.7000     76.916     21.000 250141.000     60.000    45.7769   -20.0773   -27.8831   120.0962    -0.1480    -3.0001   -51.2818   119.9860    33.4770    -0.9995     0.0010    14.0000     4.0000     4.0000     2.0000    16.0000     4.0000     6.0000    10.0000    -2.0020     2.0025   159.4167   -41.1662     2.2205    31.2998     4.9979     4.9969     5.0000     5.000
     84     1.1800     0.0000     0.8200    16.4001    14.7000     77.021      7.000 250141.000     60.000    45.9239   -20.0773   -27.9743   120.0962    -0.1480    -3.0001   -51.1048   119.7099    33.6839    -0.9995     0.0010    14.0000     4.0000     4.0000     2.0000    16.0000     4.0000     6.0000    10.0000    -2.0020     2.0025   159.4167   -41.1662     2.2205    31.1000     5.0026     4.9983     5.0000     5.000
     85     1.1800     0.0000     0.8200    16.2002    14.7000     77.157     10.000 250141.000     60.000    46.0723   -20.0773   -28.0665   120.0962    -0.1480    -3.0001   -50.9273   119.4336    33.8900    -0.9995     0.0010    14.0000     4.0000     4.0000     2.0000    16.0000     4.0000     6.0000    10.0000    -2.0020     2.0025   159.4167   -41.1662     2.2204    30.9002     4.9986     4.9983     5.0000     5.000
     86     1.1800     0.0000     0.8200    16.0000    14.7000     77.145     12.000 250141.000     60.000    46.2221   -20.0773   -28.1597   120.0962    -0.1480    -3.0001   -50.7492   119.1574    34.0959    -0.9995     0.0010    14.0000     4.0000     4.0000     2.0000    16.0000     4.0000     6.0000    10.0000    -2.0020     2.0025   159.4167   -41.1662     2.2204    30.7000     4.9952     5.0029     5.0000     5.000
     87     1.1800     0.0000     0.8200    15.8000    14.7000     77.496     15.000 250141.000     60.000    46.3734   -20.0773   -28.2538   120.0962    -0.1480    -3.0001   -50.5708   118.8820    34.3010    -0.9995     0.0010    14.0000     4.0000     4.0000     2.0000    16.0000     4.0000     6.0000    10.0000    -2.0020     2.0025   159.4167   -41.1662     2.2204    30.5000     5.0030     5.0005     5.0000     5.000
     88     1.1799     0.0000     0.8200    15.5997    14.7000     78.094     13.000 250141.000     60.000    46.5262   -20.0773   -28.3490   120.0962    -0.1480    -3.0001   -50.3918   118.6069    34.5053    -0.9995     0.0010    14.0000     4.0000     4.0000     2.0000    16.0000     4.0000     6.0000    10.0000    -2.0020     2.0025   159.4167   -41.1662     2.2204    30.2997     5.0083     5.0004     5.0000     5.000
     89     1.1800     0.0000     0.8200    15.4000    14.7000     78.585      7.000 250141.000     60.000    46.6805   -20.0773   -28.4449   120.0962    -0.1480    -3.0001   -50.2122   118.3321    34.7091    -0.9995     0.0010    14.0000     4.0000     4.0000     2.0000    16.0000     4.0000     6.0000    10.0000    -2.0020     2.0025   159.4167   -41.1662     2.2204    30.1000     4.9947     5.0046     5.0000     5.000
     90     1.1800     0.0000     0.8200    15.2003    14.7000     78.888     11.000 250141.000     60.000    46.8364   -20.0773   -28.5417   120.0962    -0.1480    -3.0001   -50.0322   118.0572    34.9126    -0.9995     0.0010    14.0000     4.0000     4.0000     2.0000    16.0000     4.0000     6.0000    10.0000    -2.0020     2.0025   159.4167   -41.1662     2.2205    29.9003     5.0030     5.0055     5.0000     5.000
     91     1.1800     0.0000     0.8200    14.9997    14.7000     78.833     12.000 250141.000     60.000    46.9938   -20.0773   -28.6400   120.0962    -0.1480    -3.0001   -49.8518   117.7829    35.1154    -0.9995     0.0010    14.0000     4.0000     4.0000     2.0000    16.0000     4.0000     6.0000    10.0000    -2.0020     2.0025   159.4167   -41.1662     2.2204    29.6997     5.0066     5.0029     5.0000     5.000
     92     1.1800     0.0000     0.8200    14.8001    14.7000     78.803     14.000 250141.000     60.000    47.1528   -20.0773   -28.7388   120.0962    -0.1480    -3.0001   -49.6707   117.5086    35.3193    -0.9995     0.0010    14.0000     4.0000     4.0000     2.0000    16.0000     4.0000     6.0000    10.0000    -2.0020     2.0025   159.4167   -41.1662     2.2205    29.5001     5.0053     4.9984     5.0000     5.000
     93     1.1800     0.0000     0.8200    14.5999    14.7000     78.166     14.000 250141.000     60.000    47.3135   -20.0773   -28.8389   120.0962    -0.1480    -3.0001   -49.4892   117.2346    35.5189    -0.9995     0.0010    14.0000     4.0000     4.0000     2.0000    16.0000     4.0000     6.0000    10.0000    -2.0020     2.0025   159.4167   -41.1662     2.2204    29.2999     5.0043     5.0060     5.0000     5.000
     94     1.1800     0.0000     0.8200    14.4000    14.7000     77.790     13.000 250141.000     60.000    47.4758   -20.0773   -28.9399   120.0962    -0.1480    -3.0001   -49.3071   116.9606    35.7195    -0.9995     0.0010    14.0000     4.0000     4.0000     2.0000    16.0000     4.0000     6.0000    10.0000    -2.0020     2.0025   159.4167   -41.1662     2.2204    29.1000     4.9933     4.9959     5.0000     5.000
     95     1.1799     0.0000     0.8200    14.2001    14.7000     76.691     19.000 250141.000     60.000    47.6398   -20.0773   -29.0421   120.0962    -0.1480    -3.0001   -49.1245   116.6869    35.9199    -0.9995     0.0010    14.0000     4.0000     4.0000     2.0000    16.0000     4.0000     6.0000    10.0000    -2.0020     2.0025   159.4167   -41.1662     2.2204    28.9000     5.0019     5.0008     5.0000     5.000
     96     1.1800     0.0000     0.8200    14.0001    14.7000     76.026      5.000 250141.000     60.000    47.8055   -20.0773   -29.1453   120.0962    -0.1480    -3.0001   -48.9414   116.4138    36.1199    -0.9995     0.0010    14.0000     4.0000     4.0000     2.0000    16.0000     4.0000     6.0000    10.0000    -2.0020     2.0025   159.4167   -41.1662     2.2204    28.7001     4.9956     5.0034     5.0000     5.000
# Sum of Counts = 1970
# Center of Mass = 24.759106+/-0.796138
# Full Width Half-Maximum = 9.513909+/-0.249223
# 10:17:44 PM  10/27/2024   scan completed.
