# scan = 20
# date = 10/25/2024
# time = 3:01:41 PM
# proposal = 34735
# experiment = Magnons and paramagnon coupling in MnTe
# experiment_number = 823
# command = scan sgu 0 3 1
# builtin_command = scan sgu 0 3 1
# users = Benjamin Frandsen, Songxue Chi, George Yumnam, Huibo Cao, Michael Manley, Raphael Hermann, Eleanor Clements
# local_contact = Eleanor Clements
# scan_title = check 002 sgu dep
# monochromator = PG002
# analyzer = Pg002
# sense = -+-
# collimation = 48-40-40-120
# samplename = MnTe
# sampletype = crystal
# samplemosaic = 30.000000
# latticeconstants = 4.134649,4.134649,6.711306,90.000000,90.000000,120.000000
# ubmatrix = 0.011783,0.001670,-0.148847,0.279025,0.139513,0.006287,-0.000206,-0.241924,0.002598
# mode = 0
# plane_normal = 0.017452,-0.000000,0.999842
# ubconf = UB25Oct2024_25426PM.ini
# preset_type = normal 
# preset_channel = time
# preset_value = 1.000000
# def_x = sgu
# def_y = detector
# col_headers = 
#   Pt.        sgu       time   detector    monitor        mcu focal_length         m1         m2   mcrystal       marc     mtrans     mfocus         s1         s2        sgl        bbb        bbl        bbr        bbt        bab        bal        bar        bat        stl        stu         a1         a2          q          h          k          l         ei         ef          e        vti     sample       temp     temp_2
      1     0.0015      1.000   9481.000   2575.000      0.618    66.7975   -20.0773   -41.1660   120.0962    -0.1480    -3.0001   -34.2897   111.4528    38.4656    -0.9988    34.0000    34.0000    34.0000    34.0000    34.0000    34.0000    34.0000    34.0000    -2.0000     2.0025   159.4167   -41.1662     1.7547     1.0000     0.0000     0.0065    14.7002    14.7000     0.0002   299.5070   300.3640   300.0000   300.000
      2     1.0012      1.000   9754.000   2543.000      0.610    66.7975   -20.0773   -41.1660   120.0962    -0.1480    -3.0001   -34.2897   111.4528    38.4656    -0.9988    34.0000    34.0000    34.0000    34.0000    34.0000    34.0000    34.0000    34.0000    -2.0000     2.0025   159.4167   -41.1662     1.7547     0.9898     0.0202     0.0059    14.7002    14.7000     0.0002   299.5990   300.3540   300.0000   300.000
      3     2.0013      1.000  10672.000   2533.000      0.608    66.7975   -20.0773   -41.1660   120.0962    -0.1480    -3.0001   -34.2897   111.4528    38.4656    -0.9988    34.0000    34.0000    34.0000    34.0000    34.0000    34.0000    34.0000    34.0000    -2.0000     2.0025   159.4167   -41.1662     1.7547     0.9793     0.0403     0.0053    14.7002    14.7000     0.0002   299.6790   300.3440   300.0000   300.000
      4     3.0017      1.000  10869.000   2529.000      0.607    66.7975   -20.0773   -41.1660   120.0962    -0.1480    -3.0001   -34.2897   111.4528    38.4656    -0.9988    34.0000    34.0000    34.0000    34.0000    34.0000    34.0000    34.0000    34.0000    -2.0000     2.0025   159.4167   -41.1662     1.7547     0.9684     0.0604     0.0047    14.7002    14.7000     0.0002   299.7580   300.3340   300.0000   300.000
# Sum of Counts = 40776
# Center of Mass = 1.563745+/-0.012266
# Full Width Half-Maximum = 2.231090+/-0.015195
# 3:01:59 PM  10/25/2024   scan completed.
