# scan = 124
# date = 10/27/2024
# time = 11:08:40 PM
# proposal = 34735
# experiment = Magnons and paramagnon coupling in MnTe
# experiment_number = 823
# command = scan h 1.16 k 0.0 l 0.84 e 32.8 12.0 0.2 ef 14.7 preset mcu 60
# builtin_command = scan h 1.16 k 0.0 l 0.84 e 32.8 12.0 0.2 ef 14.7 preset mcu 60
# users = Benjamin Frandsen, Songxue Chi, George Yumnam, Huibo Cao, Michael Manley, Raphael Hermann, Eleanor Clements
# local_contact = Eleanor Clements
# scan_title = Scans H0L = (1.0, 0, 1.0) to (1.5, 0, 0.5) - Transverse at (1.16, 0.0, 0.84) - E = 32.8 to 12 mev
# monochromator = PG002
# analyzer = Pg002
# sense = -+-
# collimation = 48-40-40-120
# samplename = MnTe
# sampletype = crystal
# samplemosaic = 30.000000
# latticeconstants = 4.113532,4.113532,6.656209,90.000000,90.000000,120.000000
# ubmatrix = 0.008885,0.000200,-0.150137,0.280567,0.140284,0.004756,-0.000155,-0.243141,0.002621
# mode = 0
# plane_normal = 0.017452,-0.000000,0.999848
# ubconf = UB25Oct2024_84509PM.ini
# preset_type = normal 
# preset_channel = mcu
# preset_value = 60.000000
# def_x = e
# def_y = detector
# col_headers = 
#   Pt.          h          k          l          e         ef       time   detector    monitor        mcu focal_length         m1         m2   mcrystal       marc     mtrans     mfocus         s1         s2        sgl        sgu        bbb        bbl        bbr        bbt        bab        bal        bar        bat        stl        stu         a1         a2          q         ei        vti     sample       temp     temp_2
      1     1.1600     0.0000     0.8401    32.8024    14.7000     76.715     15.000 250141.000     60.000    37.1597   -20.0773   -22.5563   120.0962    -0.1480    -3.0001   -64.3554   149.9005     8.8205    -0.9995     0.0010    14.0000     4.0000     4.0000     2.0000    16.0000     4.0000     6.0000    10.0000    -2.0020     2.0025   159.4167   -41.1662     2.1943    47.5024     4.9945     4.9987     5.0000     5.000
      2     1.1600     0.0000     0.8399    32.6001    14.7000     76.513     14.000 250141.000     60.000    37.2382   -20.0773   -22.6051   120.0962    -0.1480    -3.0001   -64.2063   149.1484     9.4398    -0.9995     0.0010    14.0000     4.0000     4.0000     2.0000    16.0000     4.0000     6.0000    10.0000    -2.0020     2.0025   159.4167   -41.1662     2.1943    47.3001     5.0065     5.0039     5.0000     5.000
      3     1.1601     0.0000     0.8399    32.4007    14.7000     75.988      6.000 250141.000     60.000    37.3172   -20.0773   -22.6536   120.0962    -0.1480    -3.0001   -64.0570   148.4402    10.0199    -0.9995     0.0010    14.0000     4.0000     4.0000     2.0000    16.0000     4.0000     6.0000    10.0000    -2.0020     2.0025   159.4167   -41.1662     2.1943    47.1007     4.9948     5.0039     5.0000     5.000
      4     1.1600     0.0000     0.8399    32.2001    14.7000     75.624     13.000 250141.000     60.000    37.3966   -20.0773   -22.7026   120.0962    -0.1480    -3.0001   -63.9074   147.7685    10.5679    -0.9995     0.0010    14.0000     4.0000     4.0000     2.0000    16.0000     4.0000     6.0000    10.0000    -2.0020     2.0025   159.4167   -41.1662     2.1943    46.9000     5.0009     4.9991     5.0000     5.000
      5     1.1600     0.0000     0.8400    31.9999    14.7000     75.396     11.000 250141.000     60.000    37.4766   -20.0773   -22.7519   120.0962    -0.1480    -3.0001   -63.7576   147.1286    11.0886    -0.9995     0.0010    14.0000     4.0000     4.0000     2.0000    16.0000     4.0000     6.0000    10.0000    -2.0020     2.0025   159.4167   -41.1662     2.1942    46.6999     5.0043     5.0028     5.0000     5.000
      6     1.1600     0.0000     0.8400    31.8002    14.7000     74.833      8.000 250141.000     60.000    37.5571   -20.0773   -22.8013   120.0962    -0.1480    -3.0001   -63.6075   146.5154    11.5910    -0.9995     0.0010    14.0000     4.0000     4.0000     2.0000    16.0000     4.0000     6.0000    10.0000    -2.0020     2.0025   159.4167   -41.1662     2.1943    46.5002     5.0062     5.0035     5.0000     5.000
      7     1.1600     0.0000     0.8400    31.5993    14.7000     74.587     13.000 250141.000     60.000    37.6382   -20.0773   -22.8514   120.0962    -0.1480    -3.0001   -63.4572   145.9257    12.0691    -0.9995     0.0010    14.0000     4.0000     4.0000     2.0000    16.0000     4.0000     6.0000    10.0000    -2.0020     2.0025   159.4167   -41.1662     2.1942    46.2993     4.9935     4.9986     5.0000     5.000
      8     1.1600     0.0000     0.8400    31.4002    14.7000     74.019     10.000 250141.000     60.000    37.7197   -20.0773   -22.9014   120.0962    -0.1480    -3.0001   -63.3065   145.3576    12.5327    -0.9995     0.0010    14.0000     4.0000     4.0000     2.0000    16.0000     4.0000     6.0000    10.0000    -2.0020     2.0025   159.4167   -41.1662     2.1942    46.1002     5.0042     4.9985     5.0000     5.000
      9     1.1601     0.0000     0.8399    31.2007    14.7000     73.711     13.000 250141.000     60.000    37.8018   -20.0773   -22.9517   120.0962    -0.1480    -3.0001   -63.1557   144.8069    12.9833    -0.9995     0.0010    14.0000     4.0000     4.0000     2.0000    16.0000     4.0000     6.0000    10.0000    -2.0020     2.0025   159.4167   -41.1662     2.1943    45.9007     5.0052     4.9946     5.0000     5.000
     10     1.1600     0.0000     0.8399    30.9996    14.7000     73.350     12.000 250141.000     60.000    37.8844   -20.0773   -23.0029   120.0962    -0.1480    -3.0001   -63.0045   144.2739    13.4166    -0.9995     0.0010    14.0000     4.0000     4.0000     2.0000    16.0000     4.0000     6.0000    10.0000    -2.0020     2.0025   159.4167   -41.1662     2.1942    45.6996     5.0050     5.0004     5.0000     5.000
     11     1.1600     0.0000     0.8399    30.7994    14.7000     72.818     13.000 250141.000     60.000    37.9676   -20.0773   -23.0541   120.0962    -0.1480    -3.0001   -62.8531   143.7552    13.8366    -0.9995     0.0010    14.0000     4.0000     4.0000     2.0000    16.0000     4.0000     6.0000    10.0000    -2.0020     2.0025   159.4167   -41.1662     2.1942    45.4994     5.0023     5.0053     5.0000     5.000
     12     1.1600     0.0000     0.8399    30.6000    14.7000     72.683     11.000 250141.000     60.000    38.0513   -20.0773   -23.1055   120.0962    -0.1480    -3.0001   -62.7014   143.2504    14.2479    -0.9995     0.0010    14.0000     4.0000     4.0000     2.0000    16.0000     4.0000     6.0000    10.0000    -2.0020     2.0025   159.4167   -41.1662     2.1943    45.3000     5.0003     5.0049     5.0000     5.000
     13     1.1600     0.0000     0.8399    30.4002    14.7000     72.504     16.000 250141.000     60.000    38.1356   -20.0773   -23.1573   120.0962    -0.1480    -3.0001   -62.5495   142.7586    14.6461    -0.9995     0.0010    14.0000     4.0000     4.0000     2.0000    16.0000     4.0000     6.0000    10.0000    -2.0020     2.0025   159.4167   -41.1662     2.1943    45.1002     4.9939     4.9977     5.0000     5.000
     14     1.1600     0.0000     0.8400    30.2003    14.7000     72.137     12.000 250141.000     60.000    38.2204   -20.0773   -23.2096   120.0962    -0.1480    -3.0001   -62.3973   142.2779    15.0349    -0.9995     0.0010    14.0000     4.0000     4.0000     2.0000    16.0000     4.0000     6.0000    10.0000    -2.0020     2.0025   159.4167   -41.1662     2.1943    44.9003     4.9966     5.0061     5.0000     5.000
     15     1.1601     0.0000     0.8399    30.0004    14.7000     71.659     12.000 250141.000     60.000    38.3059   -20.0773   -23.2621   120.0962    -0.1480    -3.0001   -62.2448   141.8079    15.4170    -0.9995     0.0010    14.0000     4.0000     4.0000     2.0000    16.0000     4.0000     6.0000    10.0000    -2.0020     2.0025   159.4167   -41.1662     2.1943    44.7004     5.0090     5.0015     5.0000     5.000
     16     1.1600     0.0000     0.8399    29.7992    14.7000     71.668     17.000 250141.000     60.000    38.3918   -20.0773   -23.3154   120.0962    -0.1480    -3.0001   -62.0920   141.3477    15.7874    -0.9995     0.0010    14.0000     4.0000     4.0000     2.0000    16.0000     4.0000     6.0000    10.0000    -2.0020     2.0025   159.4167   -41.1662     2.1942    44.4992     5.0019     5.0019     5.0000     5.000
     17     1.1600     0.0000     0.8400    29.6011    14.7000     71.274     16.000 250141.000     60.000    38.4784   -20.0773   -23.3682   120.0962    -0.1480    -3.0001   -61.9390   140.8969    16.1504    -0.9995     0.0010    14.0000     4.0000     4.0000     2.0000    16.0000     4.0000     6.0000    10.0000    -2.0020     2.0025   159.4167   -41.1662     2.1943    44.3011     5.0054     4.9989     5.0000     5.000
     18     1.1599     0.0000     0.8400    29.3997    14.7000     71.050     25.000 250141.000     60.000    38.5656   -20.0773   -23.4222   120.0962    -0.1480    -3.0001   -61.7856   140.4544    16.5051    -0.9995     0.0010    14.0000     4.0000     4.0000     2.0000    16.0000     4.0000     6.0000    10.0000    -2.0020     2.0025   159.4167   -41.1662     2.1942    44.0997     5.0032     4.9955     5.0000     5.000
     19     1.1600     0.0000     0.8400    29.1999    14.7000     71.149     29.000 250141.000     60.000    38.6533   -20.0773   -23.4762   120.0962    -0.1480    -3.0001   -61.6320   140.0198    16.8585    -0.9995     0.0010    14.0000     4.0000     4.0000     2.0000    16.0000     4.0000     6.0000    10.0000    -2.0020     2.0025   159.4167   -41.1662     2.1943    43.8999     4.9973     4.9943     5.0000     5.000
     20     1.1600     0.0000     0.8399    28.9998    14.7000     70.524     27.000 250141.000     60.000    38.7417   -20.0773   -23.5307   120.0962    -0.1480    -3.0001   -61.4781   139.5927    17.2028    -0.9995     0.0010    14.0000     4.0000     4.0000     2.0000    16.0000     4.0000     6.0000    10.0000    -2.0020     2.0025   159.4167   -41.1662     2.1943    43.6998     4.9944     4.9998     5.0000     5.000
     21     1.1600     0.0000     0.8400    28.8006    14.7000     71.025     29.000 250141.000     60.000    38.8306   -20.0773   -23.5853   120.0962    -0.1480    -3.0001   -61.3240   139.1726    17.5398    -0.9995     0.0010    14.0000     4.0000     4.0000     2.0000    16.0000     4.0000     6.0000    10.0000    -2.0020     2.0025   159.4167   -41.1662     2.1943    43.5006     5.0028     5.0002     5.0000     5.000
     22     1.1600     0.0000     0.8400    28.5993    14.7000     70.829     19.000 250141.000     60.000    38.9202   -20.0773   -23.6408   120.0962    -0.1480    -3.0001   -61.1695   138.7590    17.8711    -0.9995     0.0010    14.0000     4.0000     4.0000     2.0000    16.0000     4.0000     6.0000    10.0000    -2.0020     2.0025   159.4167   -41.1662     2.1942    43.2993     5.0059     5.0012     5.0000     5.000
     23     1.1600     0.0000     0.8400    28.4006    14.7000     70.758     38.000 250141.000     60.000    39.0104   -20.0773   -23.6960   120.0962    -0.1480    -3.0001   -61.0148   138.3516    18.2006    -0.9995     0.0010    14.0000     4.0000     4.0000     2.0000    16.0000     4.0000     6.0000    10.0000    -2.0020     2.0025   159.4167   -41.1662     2.1943    43.1006     5.0026     4.9978     5.0000     5.000
     24     1.1600     0.0000     0.8400    28.1998    14.7000     70.569     26.000 250141.000     60.000    39.1012   -20.0773   -23.7522   120.0962    -0.1480    -3.0001   -60.8597   137.9504    18.5191    -0.9995     0.0010    14.0000     4.0000     4.0000     2.0000    16.0000     4.0000     6.0000    10.0000    -2.0020     2.0025   159.4167   -41.1662     2.1942    42.8998     4.9984     5.0031     5.0000     5.000
     25     1.1600     0.0000     0.8400    27.9998    14.7000     70.362     23.000 250141.000     60.000    39.1927   -20.0773   -23.8086   120.0962    -0.1480    -3.0001   -60.7044   137.5542    18.8392    -0.9995     0.0010    14.0000     4.0000     4.0000     2.0000    16.0000     4.0000     6.0000    10.0000    -2.0020     2.0025   159.4167   -41.1662     2.1943    42.6998     5.0057     4.9988     5.0000     5.000
     26     1.1600     0.0000     0.8400    27.7998    14.7000     70.241     32.000 250141.000     60.000    39.2848   -20.0773   -23.8654   120.0962    -0.1480    -3.0001   -60.5487   137.1635    19.1520    -0.9995     0.0010    14.0000     4.0000     4.0000     2.0000    16.0000     4.0000     6.0000    10.0000    -2.0020     2.0025   159.4167   -41.1662     2.1943    42.4998     5.0091     5.0023     5.0000     5.000
     27     1.1600     0.0000     0.8400    27.6002    14.7000     69.520     33.000 250141.000     60.000    39.3775   -20.0773   -23.9225   120.0962    -0.1480    -3.0001   -60.3928   136.7777    19.4587    -0.9995     0.0010    14.0000     4.0000     4.0000     2.0000    16.0000     4.0000     6.0000    10.0000    -2.0020     2.0025   159.4167   -41.1662     2.1942    42.3002     5.0077     5.0031     5.0000     5.000
     28     1.1600     0.0000     0.8400    27.4000    14.7000     69.513     39.000 250141.000     60.000    39.4710   -20.0773   -23.9801   120.0962    -0.1480    -3.0001   -60.2366   136.3965    19.7652    -0.9995     0.0010    14.0000     4.0000     4.0000     2.0000    16.0000     4.0000     6.0000    10.0000    -2.0020     2.0025   159.4167   -41.1662     2.1943    42.1000     5.0008     5.0020     5.0000     5.000
     29     1.1600     0.0000     0.8400    27.2000    14.7000     68.814     30.000 250141.000     60.000    39.5651   -20.0773   -24.0381   120.0962    -0.1480    -3.0001   -60.0800   136.0203    20.0640    -0.9995     0.0010    14.0000     4.0000     4.0000     2.0000    16.0000     4.0000     6.0000    10.0000    -2.0020     2.0025   159.4167   -41.1662     2.1942    41.9000     4.9974     4.9975     5.0000     5.000
     30     1.1600     0.0000     0.8400    26.9995    14.7000     68.277     34.000 250141.000     60.000    39.6598   -20.0773   -24.0967   120.0962    -0.1480    -3.0001   -59.9232   135.6478    20.3618    -0.9995     0.0010    14.0000     4.0000     4.0000     2.0000    16.0000     4.0000     6.0000    10.0000    -2.0020     2.0025   159.4167   -41.1662     2.1942    41.6995     5.0062     4.9967     5.0000     5.000
     31     1.1600     0.0000     0.8400    26.8006    14.7000     67.746     23.000 250141.000     60.000    39.7553   -20.0773   -24.1553   120.0962    -0.1480    -3.0001   -59.7660   135.2796    20.6544    -0.9995     0.0010    14.0000     4.0000     4.0000     2.0000    16.0000     4.0000     6.0000    10.0000    -2.0020     2.0025   159.4167   -41.1662     2.1943    41.5006     4.9944     4.9977     5.0000     5.000
     32     1.1600     0.0000     0.8400    26.5996    14.7000     67.147     34.000 250141.000     60.000    39.8514   -20.0773   -24.2149   120.0962    -0.1480    -3.0001   -59.6086   134.9153    20.9435    -0.9995     0.0010    14.0000     4.0000     4.0000     2.0000    16.0000     4.0000     6.0000    10.0000    -2.0020     2.0025   159.4167   -41.1662     2.1942    41.2996     5.0023     5.0005     5.0000     5.000
     33     1.1601     0.0000     0.8400    26.4003    14.7000     66.215     36.000 250141.000     60.000    39.9483   -20.0773   -24.2744   120.0962    -0.1480    -3.0001   -59.4508   134.5544    21.2329    -0.9995     0.0010    14.0000     4.0000     4.0000     2.0000    16.0000     4.0000     6.0000    10.0000    -2.0020     2.0025   159.4167   -41.1662     2.1943    41.1003     5.0023     5.0020     5.0000     5.000
     34     1.1599     0.0000     0.8401    26.2006    14.7000     65.818     33.000 250141.000     60.000    40.0458   -20.0773   -24.3345   120.0962    -0.1480    -3.0001   -59.2927   134.1975    21.5101    -0.9995     0.0010    14.0000     4.0000     4.0000     2.0000    16.0000     4.0000     6.0000    10.0000    -2.0020     2.0025   159.4167   -41.1662     2.1941    40.9006     5.0063     5.0001     5.0000     5.000
     35     1.1600     0.0000     0.8399    25.9995    14.7000     65.043     29.000 250141.000     60.000    40.1441   -20.0773   -24.3955   120.0962    -0.1480    -3.0001   -59.1343   133.8439    21.7955    -0.9995     0.0010    14.0000     4.0000     4.0000     2.0000    16.0000     4.0000     6.0000    10.0000    -2.0020     2.0025   159.4167   -41.1662     2.1943    40.6995     5.0023     4.9969     5.0000     5.000
     36     1.1600     0.0000     0.8400    25.7995    14.7000     65.150     31.000 250141.000     60.000    40.2431   -20.0773   -24.4566   120.0962    -0.1480    -3.0001   -58.9756   133.4932    22.0713    -0.9995     0.0010    14.0000     4.0000     4.0000     2.0000    16.0000     4.0000     6.0000    10.0000    -2.0020     2.0025   159.4167   -41.1662     2.1942    40.4995     5.0067     4.9992     5.0000     5.000
     37     1.1600     0.0000     0.8400    25.6006    14.7000     64.469     31.000 250141.000     60.000    40.3428   -20.0773   -24.5177   120.0962    -0.1480    -3.0001   -58.8166   133.1454    22.3461    -0.9995     0.0010    14.0000     4.0000     4.0000     2.0000    16.0000     4.0000     6.0000    10.0000    -2.0020     2.0025   159.4167   -41.1662     2.1943    40.3006     5.0072     4.9993     5.0000     5.000
     38     1.1600     0.0000     0.8400    25.4002    14.7000     64.161     29.000 250141.000     60.000    40.4433   -20.0773   -24.5799   120.0962    -0.1480    -3.0001   -58.6572   132.8016    22.6187    -0.9995     0.0010    14.0000     4.0000     4.0000     2.0000    16.0000     4.0000     6.0000    10.0000    -2.0020     2.0025   159.4167   -41.1662     2.1943    40.1002     4.9957     5.0054     5.0000     5.000
     39     1.1600     0.0000     0.8400    25.2003    14.7000     64.017     27.000 250141.000     60.000    40.5446   -20.0773   -24.6424   120.0962    -0.1480    -3.0001   -58.4975   132.4600    22.8859    -0.9995     0.0010    14.0000     4.0000     4.0000     2.0000    16.0000     4.0000     6.0000    10.0000    -2.0020     2.0025   159.4167   -41.1662     2.1942    39.9003     5.0068     5.0004     5.0000     5.000
     40     1.1600     0.0000     0.8400    24.9995    14.7000     63.702     45.000 250141.000     60.000    40.6465   -20.0773   -24.7056   120.0962    -0.1480    -3.0001   -58.3375   132.1209    23.1546    -0.9995     0.0010    14.0000     4.0000     4.0000     2.0000    16.0000     4.0000     6.0000    10.0000    -2.0020     2.0025   159.4167   -41.1662     2.1942    39.6995     4.9988     4.9993     5.0000     5.000
     41     1.1601     0.0000     0.8400    24.8004    14.7000     63.662     35.000 250141.000     60.000    40.7493   -20.0773   -24.7688   120.0962    -0.1480    -3.0001   -58.1772   131.7850    23.4205    -0.9995     0.0010    14.0000     4.0000     4.0000     2.0000    16.0000     4.0000     6.0000    10.0000    -2.0020     2.0025   159.4167   -41.1662     2.1943    39.5004     5.0023     5.0036     5.0000     5.000
     42     1.1600     0.0000     0.8400    24.5999    14.7000     63.540     28.000 250141.000     60.000    40.8529   -20.0773   -24.8329   120.0962    -0.1480    -3.0001   -58.0165   131.4511    23.6799    -0.9995     0.0010    14.0000     4.0000     4.0000     2.0000    16.0000     4.0000     6.0000    10.0000    -2.0020     2.0025   159.4167   -41.1662     2.1942    39.2999     5.0051     4.9993     5.0000     5.000
     43     1.1600     0.0000     0.8400    24.3999    14.7000     63.714     28.000 250141.000     60.000    40.9572   -20.0773   -24.8973   120.0962    -0.1480    -3.0001   -57.8555   131.1201    23.9400    -0.9995     0.0010    14.0000     4.0000     4.0000     2.0000    16.0000     4.0000     6.0000    10.0000    -2.0020     2.0025   159.4167   -41.1662     2.1942    39.0999     5.0050     5.0016     5.0000     5.000
     44     1.1600     0.0000     0.8400    24.2000    14.7000     63.833     29.000 250141.000     60.000    41.0624   -20.0773   -24.9622   120.0962    -0.1480    -3.0001   -57.6941   130.7910    24.1994    -0.9995     0.0010    14.0000     4.0000     4.0000     2.0000    16.0000     4.0000     6.0000    10.0000    -2.0020     2.0025   159.4167   -41.1662     2.1943    38.9000     5.0071     5.0064     5.0000     5.000
     45     1.1600     0.0000     0.8400    24.0000    14.7000     64.118     26.000 250141.000     60.000    41.1683   -20.0773   -25.0277   120.0962    -0.1480    -3.0001   -57.5324   130.4645    24.4551    -0.9995     0.0010    14.0000     4.0000     4.0000     2.0000    16.0000     4.0000     6.0000    10.0000    -2.0020     2.0025   159.4167   -41.1662     2.1943    38.7000     5.0029     5.0043     5.0000     5.000
     46     1.1600     0.0000     0.8400    23.8006    14.7000     64.541     29.000 250141.000     60.000    41.2751   -20.0773   -25.0935   120.0962    -0.1480    -3.0001   -57.3704   130.1400    24.7079    -0.9995     0.0010    14.0000     4.0000     4.0000     2.0000    16.0000     4.0000     6.0000    10.0000    -2.0020     2.0025   159.4167   -41.1662     2.1942    38.5006     4.9986     4.9961     5.0000     5.000
     47     1.1600     0.0000     0.8400    23.5999    14.7000     64.844     35.000 250141.000     60.000    41.3828   -20.0773   -25.1602   120.0962    -0.1480    -3.0001   -57.2080   129.8176    24.9611    -0.9995     0.0010    14.0000     4.0000     4.0000     2.0000    16.0000     4.0000     6.0000    10.0000    -2.0020     2.0025   159.4167   -41.1662     2.1943    38.2999     4.9948     5.0032     5.0000     5.000
     48     1.1600     0.0000     0.8399    23.3993    14.7000     65.372     27.000 250141.000     60.000    41.4912   -20.0773   -25.2275   120.0962    -0.1480    -3.0001   -57.0453   129.4970    25.2116    -0.9995     0.0010    14.0000     4.0000     4.0000     2.0000    16.0000     4.0000     6.0000    10.0000    -2.0020     2.0025   159.4167   -41.1662     2.1943    38.0993     5.0035     4.9965     5.0000     5.000
     49     1.1600     0.0000     0.8400    23.1998    14.7000     65.875     30.000 250141.000     60.000    41.6006   -20.0773   -25.2949   120.0962    -0.1480    -3.0001   -56.8822   129.1789    25.4585    -0.9995     0.0010    14.0000     4.0000     4.0000     2.0000    16.0000     4.0000     6.0000    10.0000    -2.0020     2.0025   159.4167   -41.1662     2.1942    37.8998     4.9974     5.0009     5.0000     5.000
     50     1.1599     0.0000     0.8400    23.0003    14.7000     66.552     21.000 250141.000     60.000    41.7108   -20.0773   -25.3628   120.0962    -0.1480    -3.0001   -56.7188   128.8618    25.7020    -0.9995     0.0010    14.0000     4.0000     4.0000     2.0000    16.0000     4.0000     6.0000    10.0000    -2.0020     2.0025   159.4167   -41.1662     2.1942    37.7003     4.9968     5.0006     5.0000     5.000
     51     1.1600     0.0000     0.8400    22.8002    14.7000     66.984     24.000 250141.000     60.000    41.8218   -20.0773   -25.4315   120.0962    -0.1480    -3.0001   -56.5550   128.5472    25.9490    -0.9995     0.0010    14.0000     4.0000     4.0000     2.0000    16.0000     4.0000     6.0000    10.0000    -2.0020     2.0025   159.4167   -41.1662     2.1943    37.5002     4.9996     4.9997     5.0000     5.000
     52     1.1600     0.0000     0.8400    22.6012    14.7000     67.416     32.000 250141.000     60.000    41.9338   -20.0773   -25.5004   120.0962    -0.1480    -3.0001   -56.3908   128.2341    26.1923    -0.9995     0.0010    14.0000     4.0000     4.0000     2.0000    16.0000     4.0000     6.0000    10.0000    -2.0020     2.0025   159.4167   -41.1662     2.1943    37.3012     5.0026     4.9992     5.0000     5.000
     53     1.1600     0.0000     0.8399    22.3989    14.7000     67.963     33.000 250141.000     60.000    42.0467   -20.0773   -25.5710   120.0962    -0.1480    -3.0001   -56.2263   127.9224    26.4351    -0.9995     0.0010    14.0000     4.0000     4.0000     2.0000    16.0000     4.0000     6.0000    10.0000    -2.0020     2.0025   159.4167   -41.1662     2.1943    37.0989     4.9989     4.9972     5.0000     5.000
     54     1.1600     0.0000     0.8400    22.2003    14.7000     68.176     26.000 250141.000     60.000    42.1605   -20.0773   -25.6409   120.0962    -0.1480    -3.0001   -56.0614   127.6128    26.6719    -0.9995     0.0010    14.0000     4.0000     4.0000     2.0000    16.0000     4.0000     6.0000    10.0000    -2.0020     2.0025   159.4167   -41.1662     2.1942    36.9003     4.9970     4.9985     5.0000     5.000
     55     1.1600     0.0000     0.8400    21.9999    14.7000     69.024     33.000 250141.000     60.000    42.2752   -20.0773   -25.7120   120.0962    -0.1480    -3.0001   -55.8961   127.3042    26.9109    -0.9995     0.0010    14.0000     4.0000     4.0000     2.0000    16.0000     4.0000     6.0000    10.0000    -2.0020     2.0025   159.4167   -41.1662     2.1942    36.6999     5.0038     4.9970     5.0000     5.000
     56     1.1600     0.0000     0.8400    21.8000    14.7000     69.306     32.000 250141.000     60.000    42.3909   -20.0773   -25.7835   120.0962    -0.1480    -3.0001   -55.7305   126.9974    27.1467    -0.9995     0.0010    14.0000     4.0000     4.0000     2.0000    16.0000     4.0000     6.0000    10.0000    -2.0020     2.0025   159.4167   -41.1662     2.1942    36.5000     5.0009     5.0007     5.0000     5.000
     57     1.1600     0.0000     0.8400    21.5998    14.7000     69.580     29.000 250141.000     60.000    42.5075   -20.0773   -25.8557   120.0962    -0.1480    -3.0001   -55.5645   126.6921    27.3845    -0.9995     0.0010    14.0000     4.0000     4.0000     2.0000    16.0000     4.0000     6.0000    10.0000    -2.0020     2.0025   159.4167   -41.1662     2.1943    36.2998     4.9991     5.0017     5.0000     5.000
     58     1.1600     0.0000     0.8400    21.3998    14.7000     69.601     25.000 250141.000     60.000    42.6251   -20.0773   -25.9285   120.0962    -0.1480    -3.0001   -55.3981   126.3880    27.6179    -0.9995     0.0010    14.0000     4.0000     4.0000     2.0000    16.0000     4.0000     6.0000    10.0000    -2.0020     2.0025   159.4167   -41.1662     2.1943    36.0998     4.9949     4.9996     5.0000     5.000
     59     1.1600     0.0000     0.8400    21.1996    14.7000     69.964     27.000 250141.000     60.000    42.7436   -20.0773   -26.0020   120.0962    -0.1480    -3.0001   -55.2313   126.0851    27.8502    -0.9995     0.0010    14.0000     4.0000     4.0000     2.0000    16.0000     4.0000     6.0000    10.0000    -2.0020     2.0025   159.4167   -41.1662     2.1943    35.8996     4.9976     5.0009     5.0000     5.000
     60     1.1600     0.0000     0.8400    21.0000    14.7000     69.743     22.000 250141.000     60.000    42.8632   -20.0773   -26.0758   120.0962    -0.1480    -3.0001   -55.0642   125.7840    28.0794    -0.9995     0.0010    14.0000     4.0000     4.0000     2.0000    16.0000     4.0000     6.0000    10.0000    -2.0020     2.0025   159.4167   -41.1662     2.1942    35.7000     5.0041     5.0034     5.0000     5.000
     61     1.1600     0.0000     0.8400    20.8002    14.7000     70.111     31.000 250141.000     60.000    42.9838   -20.0773   -26.1504   120.0962    -0.1480    -3.0001   -54.8966   125.4838    28.3087    -0.9995     0.0010    14.0000     4.0000     4.0000     2.0000    16.0000     4.0000     6.0000    10.0000    -2.0020     2.0025   159.4167   -41.1662     2.1942    35.5002     4.9957     5.0000     5.0000     5.000
     62     1.1600     0.0000     0.8400    20.6001    14.7000     69.859     19.000 250141.000     60.000    43.1054   -20.0773   -26.2257   120.0962    -0.1480    -3.0001   -54.7287   125.1844    28.5388    -0.9995     0.0010    14.0000     4.0000     4.0000     2.0000    16.0000     4.0000     6.0000    10.0000    -2.0020     2.0025   159.4167   -41.1662     2.1942    35.3001     4.9949     5.0012     5.0000     5.000
     63     1.1600     0.0000     0.8400    20.4003    14.7000     70.245     20.000 250141.000     60.000    43.2280   -20.0773   -26.3016   120.0962    -0.1480    -3.0001   -54.5603   124.8864    28.7670    -0.9995     0.0010    14.0000     4.0000     4.0000     2.0000    16.0000     4.0000     6.0000    10.0000    -2.0020     2.0025   159.4167   -41.1662     2.1943    35.1003     5.0071     5.0059     5.0000     5.000
     64     1.1600     0.0000     0.8400    20.1999    14.7000     70.446     21.000 250141.000     60.000    43.3517   -20.0773   -26.3784   120.0962    -0.1480    -3.0001   -54.3916   124.5901    28.9943    -0.9995     0.0010    14.0000     4.0000     4.0000     2.0000    16.0000     4.0000     6.0000    10.0000    -2.0020     2.0025   159.4167   -41.1662     2.1943    34.8999     5.0000     4.9989     5.0000     5.000
     65     1.1601     0.0000     0.8400    19.9997    14.7000     70.553     24.000 250141.000     60.000    43.4765   -20.0773   -26.4557   120.0962    -0.1480    -3.0001   -54.2224   124.2943    29.2201    -0.9995     0.0010    14.0000     4.0000     4.0000     2.0000    16.0000     4.0000     6.0000    10.0000    -2.0020     2.0025   159.4167   -41.1662     2.1943    34.6997     5.0017     5.0003     5.0000     5.000
     66     1.1601     0.0000     0.8400    19.8007    14.7000     71.127     14.000 250141.000     60.000    43.6023   -20.0773   -26.5333   120.0962    -0.1480    -3.0001   -54.0529   123.9993    29.4435    -0.9995     0.0010    14.0000     4.0000     4.0000     2.0000    16.0000     4.0000     6.0000    10.0000    -2.0020     2.0025   159.4167   -41.1662     2.1944    34.5007     4.9955     4.9961     5.0000     5.000
     67     1.1600     0.0000     0.8400    19.5999    14.7000     71.485     15.000 250141.000     60.000    43.7292   -20.0773   -26.6123   120.0962    -0.1480    -3.0001   -53.8830   123.7054    29.6644    -0.9995     0.0010    14.0000     4.0000     4.0000     2.0000    16.0000     4.0000     6.0000    10.0000    -2.0020     2.0025   159.4167   -41.1662     2.1942    34.2998     4.9945     5.0014     5.0000     5.000
     68     1.1600     0.0000     0.8400    19.3997    14.7000     72.038     15.000 250141.000     60.000    43.8573   -20.0773   -26.6918   120.0962    -0.1480    -3.0001   -53.7126   123.4130    29.8847    -0.9995     0.0010    14.0000     4.0000     4.0000     2.0000    16.0000     4.0000     6.0000    10.0000    -2.0020     2.0025   159.4167   -41.1662     2.1942    34.0997     4.9951     4.9990     5.0000     5.000
     69     1.1599     0.0000     0.8400    19.2000    14.7000     72.413     16.000 250141.000     60.000    43.9865   -20.0773   -26.7717   120.0962    -0.1480    -3.0001   -53.5418   123.1206    30.1048    -0.9995     0.0010    14.0000     4.0000     4.0000     2.0000    16.0000     4.0000     6.0000    10.0000    -2.0020     2.0025   159.4167   -41.1662     2.1941    33.9000     4.9922     4.9974     5.0000     5.000
     70     1.1600     0.0000     0.8400    18.9997    14.7000     72.899     13.000 250141.000     60.000    44.1168   -20.0773   -26.8527   120.0962    -0.1480    -3.0001   -53.3706   122.8300    30.3258    -0.9995     0.0010    14.0000     4.0000     4.0000     2.0000    16.0000     4.0000     6.0000    10.0000    -2.0020     2.0025   159.4167   -41.1662     2.1942    33.6996     5.0055     4.9992     5.0000     5.000
     71     1.1600     0.0000     0.8400    18.7999    14.7000     73.656     20.000 250141.000     60.000    44.2483   -20.0773   -26.9341   120.0962    -0.1480    -3.0001   -53.1990   122.5395    30.5451    -0.9995     0.0010    14.0000     4.0000     4.0000     2.0000    16.0000     4.0000     6.0000    10.0000    -2.0020     2.0025   159.4167   -41.1662     2.1942    33.4999     5.0014     4.9981     5.0000     5.000
     72     1.1600     0.0000     0.8400    18.6005    14.7000     74.047      8.000 250141.000     60.000    44.3810   -20.0773   -27.0161   120.0962    -0.1480    -3.0001   -53.0269   122.2501    30.7640    -0.9995     0.0010    14.0000     4.0000     4.0000     2.0000    16.0000     4.0000     6.0000    10.0000    -2.0020     2.0025   159.4167   -41.1662     2.1943    33.3005     5.0016     4.9982     5.0000     5.000
     73     1.1600     0.0000     0.8400    18.3999    14.7000     74.013     13.000 250141.000     60.000    44.5149   -20.0773   -27.0994   120.0962    -0.1480    -3.0001   -52.8544   121.9613    30.9809    -0.9995     0.0010    14.0000     4.0000     4.0000     2.0000    16.0000     4.0000     6.0000    10.0000    -2.0020     2.0025   159.4167   -41.1662     2.1943    33.0999     4.9944     5.0002     5.0000     5.000
     74     1.1600     0.0000     0.8400    18.2002    14.7000     74.449     14.000 250141.000     60.000    44.6500   -20.0773   -27.1832   120.0962    -0.1480    -3.0001   -52.6815   121.6739    31.1971    -0.9995     0.0010    14.0000     4.0000     4.0000     2.0000    16.0000     4.0000     6.0000    10.0000    -2.0020     2.0025   159.4167   -41.1662     2.1943    32.9001     4.9954     4.9966     5.0000     5.000
     75     1.1600     0.0000     0.8400    18.0000    14.7000     74.808     15.000 250141.000     60.000    44.7863   -20.0773   -27.2678   120.0962    -0.1480    -3.0001   -52.5081   121.3858    31.4112    -0.9995     0.0010    14.0000     4.0000     4.0000     2.0000    16.0000     4.0000     6.0000    10.0000    -2.0020     2.0025   159.4167   -41.1662     2.1943    32.7000     4.9970     4.9991     5.0000     5.000
     76     1.1600     0.0000     0.8400    17.7999    14.7000     74.941      8.000 250141.000     60.000    44.9239   -20.0773   -27.3533   120.0962    -0.1480    -3.0001   -52.3343   121.0998    31.6264    -0.9995     0.0010    14.0000     4.0000     4.0000     2.0000    16.0000     4.0000     6.0000    10.0000    -2.0020     2.0025   159.4167   -41.1662     2.1943    32.4999     5.0071     5.0035     5.0000     5.000
     77     1.1600     0.0000     0.8400    17.6000    14.7000     75.293     12.000 250141.000     60.000    45.0627   -20.0773   -27.4394   120.0962    -0.1480    -3.0001   -52.1600   120.8137    31.8394    -0.9995     0.0010    14.0000     4.0000     4.0000     2.0000    16.0000     4.0000     6.0000    10.0000    -2.0020     2.0025   159.4167   -41.1662     2.1943    32.3000     4.9978     5.0010     5.0000     5.000
     78     1.1600     0.0000     0.8400    17.4003    14.7000     76.079     14.000 250141.000     60.000    45.2029   -20.0773   -27.5263   120.0962    -0.1480    -3.0001   -51.9853   120.5280    32.0510    -0.9995     0.0010    14.0000     4.0000     4.0000     2.0000    16.0000     4.0000     6.0000    10.0000    -2.0020     2.0025   159.4167   -41.1662     2.1943    32.1003     4.9955     5.0003     5.0000     5.000
     79     1.1600     0.0000     0.8400    17.1997    14.7000     76.164      8.000 250141.000     60.000    45.3444   -20.0773   -27.6144   120.0962    -0.1480    -3.0001   -51.8102   120.2435    32.2618    -0.9995     0.0010    14.0000     4.0000     4.0000     2.0000    16.0000     4.0000     6.0000    10.0000    -2.0020     2.0025   159.4167   -41.1662     2.1942    31.8997     4.9952     5.0032     5.0000     5.000
     80     1.1600     0.0000     0.8400    16.9998    14.7000     76.643     13.000 250141.000     60.000    45.4872   -20.0773   -27.7031   120.0962    -0.1480    -3.0001   -51.6345   119.9591    32.4727    -0.9995     0.0010    14.0000     4.0000     4.0000     2.0000    16.0000     4.0000     6.0000    10.0000    -2.0020     2.0025   159.4167   -41.1662     2.1942    31.6998     5.0060     4.9985     5.0000     5.000
     81     1.1600     0.0000     0.8400    16.8004    14.7000     76.718      5.000 250141.000     60.000    45.6314   -20.0773   -27.7924   120.0962    -0.1480    -3.0001   -51.4584   119.6753    32.6805    -0.9995     0.0010    14.0000     4.0000     4.0000     2.0000    16.0000     4.0000     6.0000    10.0000    -2.0020     2.0025   159.4167   -41.1662     2.1942    31.5004     5.0029     4.9975     5.0000     5.000
     82     1.1600     0.0000     0.8400    16.5999    14.7000     76.669     16.000 250141.000     60.000    45.7769   -20.0773   -27.8831   120.0962    -0.1480    -3.0001   -51.2818   119.3920    32.8925    -0.9995     0.0010    14.0000     4.0000     4.0000     2.0000    16.0000     4.0000     6.0000    10.0000    -2.0020     2.0025   159.4167   -41.1662     2.1943    31.2999     4.9973     5.0007     5.0000     5.000
     83     1.1599     0.0000     0.8400    16.3999    14.7000     77.129     11.000 250141.000     60.000    45.9239   -20.0773   -27.9744   120.0962    -0.1480    -3.0001   -51.1048   119.1094    33.0975    -0.9995     0.0010    14.0000     4.0000     4.0000     2.0000    16.0000     4.0000     6.0000    10.0000    -2.0020     2.0025   159.4167   -41.1662     2.1941    31.0999     4.9944     5.0007     5.0000     5.000
     84     1.1600     0.0000     0.8400    16.2002    14.7000     77.078     10.000 250141.000     60.000    46.0723   -20.0773   -28.0665   120.0962    -0.1480    -3.0001   -50.9273   118.8265    33.3071    -0.9995     0.0010    14.0000     4.0000     4.0000     2.0000    16.0000     4.0000     6.0000    10.0000    -2.0020     2.0025   159.4167   -41.1662     2.1942    30.9002     5.0065     5.0006     5.0000     5.000
     85     1.1599     0.0000     0.8400    16.0001    14.7000     77.333     17.000 250141.000     60.000    46.2221   -20.0773   -28.1597   120.0962    -0.1480    -3.0001   -50.7492   118.5450    33.5128    -0.9995     0.0010    14.0000     4.0000     4.0000     2.0000    16.0000     4.0000     6.0000    10.0000    -2.0020     2.0025   159.4167   -41.1662     2.1942    30.7001     4.9967     5.0028     5.0000     5.000
     86     1.1600     0.0000     0.8400    15.7998    14.7000     77.367     13.000 250141.000     60.000    46.3734   -20.0773   -28.2539   120.0962    -0.1480    -3.0001   -50.5708   118.2634    33.7197    -0.9995     0.0010    14.0000     4.0000     4.0000     2.0000    16.0000     4.0000     6.0000    10.0000    -2.0020     2.0025   159.4167   -41.1662     2.1942    30.4998     5.0037     5.0012     5.0000     5.000
     87     1.1600     0.0000     0.8400    15.5998    14.7000     77.889      8.000 250141.000     60.000    46.5262   -20.0773   -28.3490   120.0962    -0.1480    -3.0001   -50.3918   117.9816    33.9254    -0.9995     0.0010    14.0000     4.0000     4.0000     2.0000    16.0000     4.0000     6.0000    10.0000    -2.0020     2.0025   159.4167   -41.1662     2.1942    30.2998     4.9962     5.0007     5.0000     5.000
     88     1.1600     0.0000     0.8400    15.4001    14.7000     78.510      7.000 250141.000     60.000    46.6805   -20.0773   -28.4448   120.0962    -0.1480    -3.0001   -50.2122   117.7009    34.1303    -0.9995     0.0010    14.0000     4.0000     4.0000     2.0000    16.0000     4.0000     6.0000    10.0000    -2.0020     2.0025   159.4167   -41.1662     2.1942    30.1001     5.0046     4.9972     5.0000     5.000
     89     1.1600     0.0000     0.8400    15.2002    14.7000     78.690      9.000 250141.000     60.000    46.8364   -20.0773   -28.5418   120.0962    -0.1480    -3.0001   -50.0322   117.4204    34.3351    -0.9995     0.0010    14.0000     4.0000     4.0000     2.0000    16.0000     4.0000     6.0000    10.0000    -2.0020     2.0025   159.4167   -41.1662     2.1942    29.9002     5.0016     5.0002     5.0000     5.000
     90     1.1600     0.0000     0.8400    14.9997    14.7000     79.138     17.000 250141.000     60.000    46.9938   -20.0773   -28.6400   120.0962    -0.1480    -3.0001   -49.8518   117.1399    34.5402    -0.9995     0.0010    14.0000     4.0000     4.0000     2.0000    16.0000     4.0000     6.0000    10.0000    -2.0020     2.0025   159.4167   -41.1662     2.1942    29.6997     5.0034     5.0039     5.0000     5.000
     91     1.1600     0.0000     0.8400    14.8002    14.7000     78.730     13.000 250141.000     60.000    47.1528   -20.0773   -28.7387   120.0962    -0.1480    -3.0001   -49.6707   116.8598    34.7429    -0.9995     0.0010    14.0000     4.0000     4.0000     2.0000    16.0000     4.0000     6.0000    10.0000    -2.0020     2.0025   159.4167   -41.1662     2.1943    29.5002     4.9944     4.9985     5.0000     5.000
     92     1.1600     0.0000     0.8400    14.5999    14.7000     78.579     11.000 250141.000     60.000    47.3135   -20.0773   -28.8389   120.0962    -0.1480    -3.0001   -49.4892   116.5798    34.9455    -0.9995     0.0010    14.0000     4.0000     4.0000     2.0000    16.0000     4.0000     6.0000    10.0000    -2.0020     2.0025   159.4167   -41.1662     2.1942    29.2999     4.9963     4.9965     5.0000     5.000
     93     1.1600     0.0000     0.8400    14.3999    14.7000     77.529     11.000 250141.000     60.000    47.4758   -20.0773   -28.9400   120.0962    -0.1480    -3.0001   -49.3071   116.2999    35.1467    -0.9995     0.0010    14.0000     4.0000     4.0000     2.0000    16.0000     4.0000     6.0000    10.0000    -2.0020     2.0025   159.4167   -41.1662     2.1942    29.0999     5.0064     5.0006     5.0000     5.000
     94     1.1600     0.0000     0.8400    14.2002    14.7000     76.566     10.000 250141.000     60.000    47.6398   -20.0773   -29.0420   120.0962    -0.1480    -3.0001   -49.1245   116.0204    35.3498    -0.9995     0.0010    14.0000     4.0000     4.0000     2.0000    16.0000     4.0000     6.0000    10.0000    -2.0020     2.0025   159.4167   -41.1662     2.1943    28.9001     5.0053     4.9986     5.0000     5.000
     95     1.1600     0.0000     0.8400    14.0001    14.7000     75.493     15.000 250141.000     60.000    47.8055   -20.0773   -29.1453   120.0962    -0.1480    -3.0001   -48.9414   115.7409    35.5488    -0.9995     0.0010    14.0000     4.0000     4.0000     2.0000    16.0000     4.0000     6.0000    10.0000    -2.0020     2.0025   159.4167   -41.1662     2.1942    28.7001     5.0023     5.0011     5.0000     5.000
     96     1.1600     0.0000     0.8400    13.8001    14.7000     74.592     16.000 250141.000     60.000    47.9729   -20.0773   -29.2497   120.0962    -0.1480    -3.0001   -48.7577   115.4616    35.7506    -0.9995     0.0010    14.0000     4.0000     4.0000     2.0000    16.0000     4.0000     6.0000    10.0000    -2.0020     2.0025   159.4167   -41.1662     2.1943    28.5001     5.0045     4.9998     5.0000     5.000
     97     1.1600     0.0000     0.8400    13.5998    14.7000     73.587     10.000 250141.000     60.000    48.1422   -20.0773   -29.3553   120.0962    -0.1480    -3.0001   -48.5734   115.1825    35.9485    -0.9995     0.0010    14.0000     4.0000     4.0000     2.0000    16.0000     4.0000     6.0000    10.0000    -2.0020     2.0025   159.4167   -41.1662     2.1942    28.2998     4.9935     4.9969     5.0000     5.000
     98     1.1600     0.0000     0.8400    13.4003    14.7000     73.949     11.000 250141.000     60.000    48.3132   -20.0773   -29.4617   120.0962    -0.1480    -3.0001   -48.3886   114.9034    36.1475    -0.9995     0.0010    14.0000     4.0000     4.0000     2.0000    16.0000     4.0000     6.0000    10.0000    -2.0020     2.0025   159.4167   -41.1662     2.1942    28.1003     4.9970     5.0006     5.0000     5.000
     99     1.1600     0.0000     0.8400    13.1999    14.7000     74.062     10.000 250141.000     60.000    48.4860   -20.0773   -29.5697   120.0962    -0.1480    -3.0001   -48.2033   114.6240    36.3463    -0.9995     0.0010    14.0000     4.0000     4.0000     2.0000    16.0000     4.0000     6.0000    10.0000    -2.0020     2.0025   159.4167   -41.1662     2.1942    27.8999     5.0002     4.9983     5.0000     5.000
    100     1.1600     0.0000     0.8400    13.0001    14.7000     74.535     10.000 250141.000     60.000    48.6608   -20.0773   -29.6786   120.0962    -0.1480    -3.0001   -48.0174   114.3450    36.5445    -0.9995     0.0010    14.0000     4.0000     4.0000     2.0000    16.0000     4.0000     6.0000    10.0000    -2.0020     2.0025   159.4167   -41.1662     2.1942    27.7001     4.9959     4.9969     5.0000     5.000
    101     1.1599     0.0000     0.8400    12.7998    14.7000     75.318      9.000 250141.000     60.000    48.8374   -20.0773   -29.7890   120.0962    -0.1480    -3.0001   -47.8309   114.0658    36.7402    -0.9995     0.0010    14.0000     4.0000     4.0000     2.0000    16.0000     4.0000     6.0000    10.0000    -2.0020     2.0025   159.4167   -41.1662     2.1941    27.4997     4.9945     4.9975     5.0000     5.000
    102     1.1600     0.0000     0.8400    12.6000    14.7000     76.733      9.000 250141.000     60.000    49.0160   -20.0773   -29.9003   120.0962    -0.1480    -3.0001   -47.6438   113.7869    36.9386    -0.9995     0.0010    14.0000     4.0000     4.0000     2.0000    16.0000     4.0000     6.0000    10.0000    -2.0020     2.0025   159.4167   -41.1662     2.1942    27.3000     4.9979     4.9969     5.0000     5.000
    103     1.1600     0.0000     0.8400    12.4001    14.7000     77.562      6.000 250141.000     60.000    49.1965   -20.0773   -30.0130   120.0962    -0.1480    -3.0001   -47.4562   113.5079    37.1353    -0.9995     0.0010    14.0000     4.0000     4.0000     2.0000    16.0000     4.0000     6.0000    10.0000    -2.0020     2.0025   159.4167   -41.1662     2.1942    27.1001     4.9953     5.0019     5.0000     5.000
    104     1.1600     0.0000     0.8400    12.1999    14.7000     78.733      7.000 250141.000     60.000    49.3790   -20.0773   -30.1271   120.0962    -0.1480    -3.0001   -47.2680   113.2285    37.3303    -0.9995     0.0010    14.0000     4.0000     4.0000     2.0000    16.0000     4.0000     6.0000    10.0000    -2.0020     2.0025   159.4167   -41.1662     2.1942    26.8999     4.9976     5.0003     5.0000     5.000
    105     1.1600     0.0000     0.8400    12.0001    14.7000     79.253      7.000 250141.000     60.000    49.5636   -20.0773   -30.2423   120.0962    -0.1480    -3.0001   -47.0791   112.9491    37.5256    -0.9995     0.0010    14.0000     4.0000     4.0000     2.0000    16.0000     4.0000     6.0000    10.0000    -2.0020     2.0025   159.4167   -41.1662     2.1942    26.7000     4.9972     4.9973     5.0000     5.000
# Sum of Counts = 2066
# Center of Mass = 23.537486+/-0.740609
# Full Width Half-Maximum = 10.035776+/-0.242267
# 1:25:35 AM  10/28/2024   scan completed.
