# scan = 128
# date = 10/28/2024
# time = 5:13:34 AM
# proposal = 34735
# experiment = Magnons and paramagnon coupling in MnTe
# experiment_number = 823
# command = scan h 1.12 k 0.0 l 0.88 e 32.2 8.0 0.2 ef 14.7 preset mcu 60
# builtin_command = scan h 1.12 k 0.0 l 0.88 e 32.2 8.0 0.2 ef 14.7 preset mcu 60
# users = Benjamin Frandsen, Songxue Chi, George Yumnam, Huibo Cao, Michael Manley, Raphael Hermann, Eleanor Clements
# local_contact = Eleanor Clements
# scan_title = Scans H0L = (1.0, 0, 1.0) to (1.5, 0, 0.5) - Transverse at (1.12, 0.0, 0.88) - E = 32.2 to 8 mev
# monochromator = PG002
# analyzer = Pg002
# sense = -+-
# collimation = 48-40-40-120
# samplename = MnTe
# sampletype = crystal
# samplemosaic = 30.000000
# latticeconstants = 4.113532,4.113532,6.656209,90.000000,90.000000,120.000000
# ubmatrix = 0.008885,0.000200,-0.150137,0.280567,0.140284,0.004756,-0.000155,-0.243141,0.002621
# mode = 0
# plane_normal = 0.017452,-0.000000,0.999848
# ubconf = UB25Oct2024_84509PM.ini
# preset_type = normal 
# preset_channel = mcu
# preset_value = 60.000000
# def_x = e
# def_y = detector
# col_headers = 
#   Pt.          h          k          l          e         ef       time   detector    monitor        mcu focal_length         m1         m2   mcrystal       marc     mtrans     mfocus         s1         s2        sgl        sgu        bbb        bbl        bbr        bbt        bab        bal        bar        bat        stl        stu         a1         a2          q         ei        vti     sample       temp     temp_2
      1     1.1200     0.0000     0.8802    32.2028    14.7000     76.330     11.000 250141.000     60.000    37.3966   -20.0773   -22.7019   120.0962    -0.1480    -3.0001   -63.9074   149.8781     7.3303    -0.9995     0.0010    14.0000     4.0000     4.0000     2.0000    16.0000     4.0000     6.0000    10.0000    -2.0020     2.0025   159.4167   -41.1662     2.1430    46.9028     4.9944     4.9984     5.0000     5.000
      2     1.1200     0.0000     0.8799    32.0003    14.7000     76.066     11.000 250141.000     60.000    37.4766   -20.0773   -22.7518   120.0962    -0.1480    -3.0001   -63.7576   148.9718     8.0611    -0.9995     0.0010    14.0000     4.0000     4.0000     2.0000    16.0000     4.0000     6.0000    10.0000    -2.0020     2.0025   159.4167   -41.1662     2.1430    46.7003     4.9969     4.9953     5.0000     5.000
      3     1.1200     0.0000     0.8800    31.8002    14.7000     75.314     10.000 250141.000     60.000    37.5571   -20.0773   -22.8013   120.0962    -0.1480    -3.0001   -63.6075   148.1382     8.7244    -0.9995     0.0010    14.0000     4.0000     4.0000     2.0000    16.0000     4.0000     6.0000    10.0000    -2.0020     2.0025   159.4167   -41.1662     2.1429    46.5002     5.0027     5.0030     5.0000     5.000
      4     1.1200     0.0000     0.8800    31.5995    14.7000     75.022     13.000 250141.000     60.000    37.6382   -20.0773   -22.8513   120.0962    -0.1480    -3.0001   -63.4572   147.3619     9.3467    -0.9995     0.0010    14.0000     4.0000     4.0000     2.0000    16.0000     4.0000     6.0000    10.0000    -2.0020     2.0025   159.4167   -41.1662     2.1429    46.2995     4.9955     4.9968     5.0000     5.000
      5     1.1200     0.0000     0.8800    31.4000    14.7000     74.191     10.000 250141.000     60.000    37.7197   -20.0773   -22.9014   120.0962    -0.1480    -3.0001   -63.3065   146.6315     9.9278    -0.9995     0.0010    14.0000     4.0000     4.0000     2.0000    16.0000     4.0000     6.0000    10.0000    -2.0020     2.0025   159.4167   -41.1662     2.1429    46.1000     4.9941     4.9995     5.0000     5.000
      6     1.1200     0.0000     0.8800    31.2009    14.7000     73.979      8.000 250141.000     60.000    37.8018   -20.0773   -22.9517   120.0962    -0.1480    -3.0001   -63.1557   145.9399    10.4805    -0.9995     0.0010    14.0000     4.0000     4.0000     2.0000    16.0000     4.0000     6.0000    10.0000    -2.0020     2.0025   159.4167   -41.1662     2.1430    45.9009     4.9963     5.0009     5.0000     5.000
      7     1.1200     0.0000     0.8799    30.9994    14.7000     73.384     16.000 250141.000     60.000    37.8844   -20.0773   -23.0029   120.0962    -0.1480    -3.0001   -63.0045   145.2802    11.0079    -0.9995     0.0010    14.0000     4.0000     4.0000     2.0000    16.0000     4.0000     6.0000    10.0000    -2.0020     2.0025   159.4167   -41.1662     2.1430    45.6994     4.9954     4.9984     5.0000     5.000
      8     1.1199     0.0000     0.8800    30.7996    14.7000     72.867     12.000 250141.000     60.000    37.9676   -20.0773   -23.0541   120.0962    -0.1480    -3.0001   -62.8531   144.6491    11.5067    -0.9995     0.0010    14.0000     4.0000     4.0000     2.0000    16.0000     4.0000     6.0000    10.0000    -2.0020     2.0025   159.4167   -41.1662     2.1429    45.4996     4.9988     4.9984     5.0000     5.000
      9     1.1200     0.0000     0.8800    30.5998    14.7000     72.462     11.000 250141.000     60.000    38.0513   -20.0773   -23.1056   120.0962    -0.1480    -3.0001   -62.7014   144.0422    11.9916    -0.9995     0.0010    14.0000     4.0000     4.0000     2.0000    16.0000     4.0000     6.0000    10.0000    -2.0020     2.0025   159.4167   -41.1662     2.1430    45.2998     5.0064     5.0012     5.0000     5.000
     10     1.1200     0.0000     0.8799    30.4002    14.7000     72.335     13.000 250141.000     60.000    38.1356   -20.0773   -23.1573   120.0962    -0.1480    -3.0001   -62.5495   143.4571    12.4579    -0.9995     0.0010    14.0000     4.0000     4.0000     2.0000    16.0000     4.0000     6.0000    10.0000    -2.0020     2.0025   159.4167   -41.1662     2.1430    45.1002     4.9940     5.0006     5.0000     5.000
     11     1.1200     0.0000     0.8800    30.2003    14.7000     71.796      8.000 250141.000     60.000    38.2204   -20.0773   -23.2096   120.0962    -0.1480    -3.0001   -62.3973   142.8910    12.9034    -0.9995     0.0010    14.0000     4.0000     4.0000     2.0000    16.0000     4.0000     6.0000    10.0000    -2.0020     2.0025   159.4167   -41.1662     2.1429    44.9003     5.0035     4.9989     5.0000     5.000
     12     1.1200     0.0000     0.8800    30.0004    14.7000     71.924     12.000 250141.000     60.000    38.3059   -20.0773   -23.2621   120.0962    -0.1480    -3.0001   -62.2448   142.3429    13.3402    -0.9995     0.0010    14.0000     4.0000     4.0000     2.0000    16.0000     4.0000     6.0000    10.0000    -2.0020     2.0025   159.4167   -41.1662     2.1430    44.7004     5.0063     4.9997     5.0000     5.000
     13     1.1200     0.0000     0.8799    29.7990    14.7000     71.682     19.000 250141.000     60.000    38.3918   -20.0773   -23.3154   120.0962    -0.1480    -3.0001   -62.0920   141.8095    13.7618    -0.9995     0.0010    14.0000     4.0000     4.0000     2.0000    16.0000     4.0000     6.0000    10.0000    -2.0020     2.0025   159.4167   -41.1662     2.1429    44.4990     4.9968     4.9993     5.0000     5.000
     14     1.1200     0.0000     0.8800    29.6011    14.7000     71.272     11.000 250141.000     60.000    38.4784   -20.0773   -23.3682   120.0962    -0.1480    -3.0001   -61.9390   141.2906    14.1729    -0.9995     0.0010    14.0000     4.0000     4.0000     2.0000    16.0000     4.0000     6.0000    10.0000    -2.0020     2.0025   159.4167   -41.1662     2.1430    44.3011     4.9969     4.9970     5.0000     5.000
     15     1.1200     0.0000     0.8800    29.3997    14.7000     71.343      6.000 250141.000     60.000    38.5656   -20.0773   -23.4222   120.0962    -0.1480    -3.0001   -61.7856   140.7849    14.5725    -0.9995     0.0010    14.0000     4.0000     4.0000     2.0000    16.0000     4.0000     6.0000    10.0000    -2.0020     2.0025   159.4167   -41.1662     2.1430    44.0997     4.9948     5.0003     5.0000     5.000
     16     1.1200     0.0000     0.8799    29.1999    14.7000     71.221     12.000 250141.000     60.000    38.6533   -20.0773   -23.4762   120.0962    -0.1480    -3.0001   -61.6320   140.2906    14.9630    -0.9995     0.0010    14.0000     4.0000     4.0000     2.0000    16.0000     4.0000     6.0000    10.0000    -2.0020     2.0025   159.4167   -41.1662     2.1430    43.8999     4.9989     5.0010     5.0000     5.000
     17     1.1200     0.0000     0.8799    28.9998    14.7000     70.905     13.000 250141.000     60.000    38.7417   -20.0773   -23.5307   120.0962    -0.1480    -3.0001   -61.4781   139.8077    15.3435    -0.9995     0.0010    14.0000     4.0000     4.0000     2.0000    16.0000     4.0000     6.0000    10.0000    -2.0020     2.0025   159.4167   -41.1662     2.1430    43.6998     4.9951     4.9990     5.0000     5.000
     18     1.1199     0.0000     0.8801    28.8008    14.7000     70.668     23.000 250141.000     60.000    38.8306   -20.0773   -23.5852   120.0962    -0.1480    -3.0001   -61.3240   139.3349    15.7118    -0.9995     0.0010    14.0000     4.0000     4.0000     2.0000    16.0000     4.0000     6.0000    10.0000    -2.0020     2.0025   159.4167   -41.1662     2.1429    43.5008     4.9973     4.9984     5.0000     5.000
     19     1.1199     0.0000     0.8800    28.5991    14.7000     70.771     18.000 250141.000     60.000    38.9202   -20.0773   -23.6409   120.0962    -0.1480    -3.0001   -61.1695   138.8709    16.0778    -0.9995     0.0010    14.0000     4.0000     4.0000     2.0000    16.0000     4.0000     6.0000    10.0000    -2.0020     2.0025   159.4167   -41.1662     2.1429    43.2991     4.9944     5.0006     5.0000     5.000
     20     1.1200     0.0000     0.8800    28.4006    14.7000     70.434     15.000 250141.000     60.000    39.0104   -20.0773   -23.6960   120.0962    -0.1480    -3.0001   -61.0148   138.4164    16.4382    -0.9995     0.0010    14.0000     4.0000     4.0000     2.0000    16.0000     4.0000     6.0000    10.0000    -2.0020     2.0025   159.4167   -41.1662     2.1430    43.1006     4.9984     5.0020     5.0000     5.000
     21     1.1200     0.0000     0.8799    28.1996    14.7000     70.680     25.000 250141.000     60.000    39.1012   -20.0773   -23.7523   120.0962    -0.1480    -3.0001   -60.8597   137.9699    16.7894    -0.9995     0.0010    14.0000     4.0000     4.0000     2.0000    16.0000     4.0000     6.0000    10.0000    -2.0020     2.0025   159.4167   -41.1662     2.1430    42.8996     5.0009     5.0016     5.0000     5.000
     22     1.1200     0.0000     0.8800    27.9999    14.7000     70.124     31.000 250141.000     60.000    39.1927   -20.0773   -23.8086   120.0962    -0.1480    -3.0001   -60.7044   137.5306    17.1315    -0.9995     0.0010    14.0000     4.0000     4.0000     2.0000    16.0000     4.0000     6.0000    10.0000    -2.0020     2.0025   159.4167   -41.1662     2.1430    42.6999     4.9941     4.9944     5.0000     5.000
     23     1.1200     0.0000     0.8800    27.8000    14.7000     69.863     24.000 250141.000     60.000    39.2848   -20.0773   -23.8653   120.0962    -0.1480    -3.0001   -60.5487   137.0991    17.4691    -0.9995     0.0010    14.0000     4.0000     4.0000     2.0000    16.0000     4.0000     6.0000    10.0000    -2.0020     2.0025   159.4167   -41.1662     2.1429    42.5000     4.9941     5.0018     5.0000     5.000
     24     1.1200     0.0000     0.8800    27.6004    14.7000     69.789     25.000 250141.000     60.000    39.3775   -20.0773   -23.9224   120.0962    -0.1480    -3.0001   -60.3928   136.6739    17.8020    -0.9995     0.0010    14.0000     4.0000     4.0000     2.0000    16.0000     4.0000     6.0000    10.0000    -2.0020     2.0025   159.4167   -41.1662     2.1430    42.3004     5.0018     4.9973     5.0000     5.000
     25     1.1200     0.0000     0.8800    27.3999    14.7000     69.397     23.000 250141.000     60.000    39.4710   -20.0773   -23.9802   120.0962    -0.1480    -3.0001   -60.2366   136.2550    18.1276    -0.9995     0.0010    14.0000     4.0000     4.0000     2.0000    16.0000     4.0000     6.0000    10.0000    -2.0020     2.0025   159.4167   -41.1662     2.1429    42.0999     5.0056     4.9997     5.0000     5.000
     26     1.1200     0.0000     0.8800    27.2001    14.7000     68.902     22.000 250141.000     60.000    39.5651   -20.0773   -24.0381   120.0962    -0.1480    -3.0001   -60.0800   135.8424    18.4514    -0.9995     0.0010    14.0000     4.0000     4.0000     2.0000    16.0000     4.0000     6.0000    10.0000    -2.0020     2.0025   159.4167   -41.1662     2.1430    41.9001     4.9992     5.0031     5.0000     5.000
     27     1.1200     0.0000     0.8800    26.9994    14.7000     67.947     24.000 250141.000     60.000    39.6598   -20.0773   -24.0968   120.0962    -0.1480    -3.0001   -59.9232   135.4352    18.7689    -0.9995     0.0010    14.0000     4.0000     4.0000     2.0000    16.0000     4.0000     6.0000    10.0000    -2.0020     2.0025   159.4167   -41.1662     2.1429    41.6994     5.0063     4.9995     5.0000     5.000
     28     1.1200     0.0000     0.8800    26.8006    14.7000     67.797     26.000 250141.000     60.000    39.7553   -20.0773   -24.1553   120.0962    -0.1480    -3.0001   -59.7660   135.0337    19.0796    -0.9995     0.0010    14.0000     4.0000     4.0000     2.0000    16.0000     4.0000     6.0000    10.0000    -2.0020     2.0025   159.4167   -41.1662     2.1429    41.5006     4.9945     5.0008     5.0000     5.000
     29     1.1200     0.0000     0.8800    26.5996    14.7000     67.007     32.000 250141.000     60.000    39.8514   -20.0773   -24.2149   120.0962    -0.1480    -3.0001   -59.6086   134.6368    19.3900    -0.9995     0.0010    14.0000     4.0000     4.0000     2.0000    16.0000     4.0000     6.0000    10.0000    -2.0020     2.0025   159.4167   -41.1662     2.1430    41.2996     5.0051     5.0046     5.0000     5.000
     30     1.1200     0.0000     0.8800    26.4003    14.7000     66.659     20.000 250141.000     60.000    39.9483   -20.0773   -24.2744   120.0962    -0.1480    -3.0001   -59.4508   134.2451    19.6923    -0.9995     0.0010    14.0000     4.0000     4.0000     2.0000    16.0000     4.0000     6.0000    10.0000    -2.0020     2.0025   159.4167   -41.1662     2.1429    41.1003     5.0030     5.0013     5.0000     5.000
     31     1.1200     0.0000     0.8800    26.2006    14.7000     65.870     28.000 250141.000     60.000    40.0458   -20.0773   -24.3345   120.0962    -0.1480    -3.0001   -59.2927   133.8579    19.9949    -0.9995     0.0010    14.0000     4.0000     4.0000     2.0000    16.0000     4.0000     6.0000    10.0000    -2.0020     2.0025   159.4167   -41.1662     2.1430    40.9006     5.0017     4.9987     5.0000     5.000
     32     1.1199     0.0000     0.8800    25.9993    14.7000     65.300     20.000 250141.000     60.000    40.1441   -20.0773   -24.3955   120.0962    -0.1480    -3.0001   -59.1343   133.4751    20.2888    -0.9995     0.0010    14.0000     4.0000     4.0000     2.0000    16.0000     4.0000     6.0000    10.0000    -2.0020     2.0025   159.4167   -41.1662     2.1429    40.6993     5.0003     5.0002     5.0000     5.000
     33     1.1200     0.0000     0.8800    25.7995    14.7000     64.617     23.000 250141.000     60.000    40.2431   -20.0773   -24.4566   120.0962    -0.1480    -3.0001   -58.9756   133.0960    20.5847    -0.9995     0.0010    14.0000     4.0000     4.0000     2.0000    16.0000     4.0000     6.0000    10.0000    -2.0020     2.0025   159.4167   -41.1662     2.1430    40.4995     4.9962     4.9992     5.0000     5.000
     34     1.1200     0.0000     0.8800    25.6006    14.7000     64.576     18.000 250141.000     60.000    40.3428   -20.0773   -24.5177   120.0962    -0.1480    -3.0001   -58.8166   132.7215    20.8713    -0.9995     0.0010    14.0000     4.0000     4.0000     2.0000    16.0000     4.0000     6.0000    10.0000    -2.0020     2.0025   159.4167   -41.1662     2.1429    40.3006     5.0047     5.0003     5.0000     5.000
     35     1.1200     0.0000     0.8800    25.4003    14.7000     64.303     25.000 250141.000     60.000    40.4433   -20.0773   -24.5799   120.0962    -0.1480    -3.0001   -58.6572   132.3505    21.1601    -0.9995     0.0010    14.0000     4.0000     4.0000     2.0000    16.0000     4.0000     6.0000    10.0000    -2.0020     2.0025   159.4167   -41.1662     2.1430    40.1003     5.0009     5.0012     5.0000     5.000
     36     1.1200     0.0000     0.8800    25.2003    14.7000     63.790     14.000 250141.000     60.000    40.5446   -20.0773   -24.6424   120.0962    -0.1480    -3.0001   -58.4975   131.9834    21.4435    -0.9995     0.0010    14.0000     4.0000     4.0000     2.0000    16.0000     4.0000     6.0000    10.0000    -2.0020     2.0025   159.4167   -41.1662     2.1430    39.9003     4.9993     4.9929     5.0000     5.000
     37     1.1200     0.0000     0.8800    24.9995    14.7000     63.847     23.000 250141.000     60.000    40.6465   -20.0773   -24.7056   120.0962    -0.1480    -3.0001   -58.3375   131.6192    21.7217    -0.9995     0.0010    14.0000     4.0000     4.0000     2.0000    16.0000     4.0000     6.0000    10.0000    -2.0020     2.0025   159.4167   -41.1662     2.1429    39.6995     4.9949     5.0036     5.0000     5.000
     38     1.1200     0.0000     0.8800    24.8005    14.7000     63.551     19.000 250141.000     60.000    40.7493   -20.0773   -24.7687   120.0962    -0.1480    -3.0001   -58.1772   131.2585    22.0004    -0.9995     0.0010    14.0000     4.0000     4.0000     2.0000    16.0000     4.0000     6.0000    10.0000    -2.0020     2.0025   159.4167   -41.1662     2.1430    39.5005     5.0054     5.0004     5.0000     5.000
     39     1.1200     0.0000     0.8800    24.5998    14.7000     63.723     28.000 250141.000     60.000    40.8529   -20.0773   -24.8329   120.0962    -0.1480    -3.0001   -58.0165   130.9009    22.2735    -0.9995     0.0010    14.0000     4.0000     4.0000     2.0000    16.0000     4.0000     6.0000    10.0000    -2.0020     2.0025   159.4167   -41.1662     2.1429    39.2998     4.9940     5.0008     5.0000     5.000
     40     1.1200     0.0000     0.8800    24.3998    14.7000     64.004     20.000 250141.000     60.000    40.9572   -20.0773   -24.8973   120.0962    -0.1480    -3.0001   -57.8555   130.5465    22.5461    -0.9995     0.0010    14.0000     4.0000     4.0000     2.0000    16.0000     4.0000     6.0000    10.0000    -2.0020     2.0025   159.4167   -41.1662     2.1430    39.0998     4.9941     4.9990     5.0000     5.000
     41     1.1200     0.0000     0.8800    24.2002    14.7000     63.850     22.000 250141.000     60.000    41.0624   -20.0773   -24.9622   120.0962    -0.1480    -3.0001   -57.6941   130.1954    22.8162    -0.9995     0.0010    14.0000     4.0000     4.0000     2.0000    16.0000     4.0000     6.0000    10.0000    -2.0020     2.0025   159.4167   -41.1662     2.1430    38.9002     4.9965     4.9966     5.0000     5.000
     42     1.1200     0.0000     0.8800    24.0000    14.7000     63.931     23.000 250141.000     60.000    41.1683   -20.0773   -25.0277   120.0962    -0.1480    -3.0001   -57.5324   129.8460    23.0801    -0.9995     0.0010    14.0000     4.0000     4.0000     2.0000    16.0000     4.0000     6.0000    10.0000    -2.0020     2.0025   159.4167   -41.1662     2.1429    38.7000     5.0000     5.0044     5.0000     5.000
     43     1.1200     0.0000     0.8800    23.8006    14.7000     64.286     22.000 250141.000     60.000    41.2751   -20.0773   -25.0935   120.0962    -0.1480    -3.0001   -57.3704   129.5002    23.3453    -0.9995     0.0010    14.0000     4.0000     4.0000     2.0000    16.0000     4.0000     6.0000    10.0000    -2.0020     2.0025   159.4167   -41.1662     2.1430    38.5006     4.9991     5.0009     5.0000     5.000
     44     1.1200     0.0000     0.8800    23.5999    14.7000     64.823     30.000 250141.000     60.000    41.3828   -20.0773   -25.1602   120.0962    -0.1480    -3.0001   -57.2080   129.1565    23.6065    -0.9995     0.0010    14.0000     4.0000     4.0000     2.0000    16.0000     4.0000     6.0000    10.0000    -2.0020     2.0025   159.4167   -41.1662     2.1429    38.2999     4.9961     5.0004     5.0000     5.000
     45     1.1200     0.0000     0.8800    23.3993    14.7000     65.052     22.000 250141.000     60.000    41.4912   -20.0773   -25.2275   120.0962    -0.1480    -3.0001   -57.0453   128.8156    23.8666    -0.9995     0.0010    14.0000     4.0000     4.0000     2.0000    16.0000     4.0000     6.0000    10.0000    -2.0020     2.0025   159.4167   -41.1662     2.1429    38.0993     4.9966     4.9954     5.0000     5.000
     46     1.1199     0.0000     0.8800    23.1998    14.7000     65.706     36.000 250141.000     60.000    41.6006   -20.0773   -25.2949   120.0962    -0.1480    -3.0001   -56.8822   128.4769    24.1223    -0.9995     0.0010    14.0000     4.0000     4.0000     2.0000    16.0000     4.0000     6.0000    10.0000    -2.0020     2.0025   159.4167   -41.1662     2.1429    37.8998     4.9970     5.0027     5.0000     5.000
     47     1.1200     0.0000     0.8800    23.0003    14.7000     66.550     27.000 250141.000     60.000    41.7108   -20.0773   -25.3628   120.0962    -0.1480    -3.0001   -56.7188   128.1403    24.3805    -0.9995     0.0010    14.0000     4.0000     4.0000     2.0000    16.0000     4.0000     6.0000    10.0000    -2.0020     2.0025   159.4167   -41.1662     2.1430    37.7003     4.9948     5.0000     5.0000     5.000
     48     1.1200     0.0000     0.8800    22.8002    14.7000     67.134     27.000 250141.000     60.000    41.8218   -20.0773   -25.4315   120.0962    -0.1480    -3.0001   -56.5550   127.8059    24.6341    -0.9995     0.0010    14.0000     4.0000     4.0000     2.0000    16.0000     4.0000     6.0000    10.0000    -2.0020     2.0025   159.4167   -41.1662     2.1430    37.5002     4.9975     4.9984     5.0000     5.000
     49     1.1200     0.0000     0.8800    22.6012    14.7000     67.486     20.000 250141.000     60.000    41.9338   -20.0773   -25.5004   120.0962    -0.1480    -3.0001   -56.3908   127.4742    24.8845    -0.9995     0.0010    14.0000     4.0000     4.0000     2.0000    16.0000     4.0000     6.0000    10.0000    -2.0020     2.0025   159.4167   -41.1662     2.1430    37.3012     5.0065     5.0002     5.0000     5.000
     50     1.1200     0.0000     0.8800    22.3990    14.7000     68.228     26.000 250141.000     60.000    42.0467   -20.0773   -25.5710   120.0962    -0.1480    -3.0001   -56.2263   127.1436    25.1325    -0.9995     0.0010    14.0000     4.0000     4.0000     2.0000    16.0000     4.0000     6.0000    10.0000    -2.0020     2.0025   159.4167   -41.1662     2.1429    37.0990     5.0064     5.0005     5.0000     5.000
     51     1.1200     0.0000     0.8800    22.2002    14.7000     68.573     26.000 250141.000     60.000    42.1605   -20.0773   -25.6409   120.0962    -0.1480    -3.0001   -56.0614   126.8153    25.3821    -0.9995     0.0010    14.0000     4.0000     4.0000     2.0000    16.0000     4.0000     6.0000    10.0000    -2.0020     2.0025   159.4167   -41.1662     2.1430    36.9002     4.9954     4.9995     5.0000     5.000
     52     1.1200     0.0000     0.8800    21.9999    14.7000     69.066     22.000 250141.000     60.000    42.2752   -20.0773   -25.7120   120.0962    -0.1480    -3.0001   -55.8961   126.4892    25.6284    -0.9995     0.0010    14.0000     4.0000     4.0000     2.0000    16.0000     4.0000     6.0000    10.0000    -2.0020     2.0025   159.4167   -41.1662     2.1430    36.6999     4.9989     5.0036     5.0000     5.000
     53     1.1200     0.0000     0.8800    21.8000    14.7000     69.536     34.000 250141.000     60.000    42.3909   -20.0773   -25.7835   120.0962    -0.1480    -3.0001   -55.7305   126.1644    25.8705    -0.9995     0.0010    14.0000     4.0000     4.0000     2.0000    16.0000     4.0000     6.0000    10.0000    -2.0020     2.0025   159.4167   -41.1662     2.1429    36.5000     5.0016     5.0047     5.0000     5.000
     54     1.1200     0.0000     0.8800    21.5998    14.7000     69.474     28.000 250141.000     60.000    42.5075   -20.0773   -25.8557   120.0962    -0.1480    -3.0001   -55.5645   125.8415    26.1116    -0.9995     0.0010    14.0000     4.0000     4.0000     2.0000    16.0000     4.0000     6.0000    10.0000    -2.0020     2.0025   159.4167   -41.1662     2.1429    36.2998     4.9945     4.9993     5.0000     5.000
     55     1.1200     0.0000     0.8800    21.3998    14.7000     69.792     35.000 250141.000     60.000    42.6251   -20.0773   -25.9285   120.0962    -0.1480    -3.0001   -55.3981   125.5205    26.3536    -0.9995     0.0010    14.0000     4.0000     4.0000     2.0000    16.0000     4.0000     6.0000    10.0000    -2.0020     2.0025   159.4167   -41.1662     2.1429    36.0998     4.9948     4.9971     5.0000     5.000
     56     1.1200     0.0000     0.8800    21.1997    14.7000     70.122     26.000 250141.000     60.000    42.7436   -20.0773   -26.0019   120.0962    -0.1480    -3.0001   -55.2313   125.2009    26.5943    -0.9995     0.0010    14.0000     4.0000     4.0000     2.0000    16.0000     4.0000     6.0000    10.0000    -2.0020     2.0025   159.4167   -41.1662     2.1430    35.8997     5.0052     5.0004     5.0000     5.000
     57     1.1200     0.0000     0.8800    20.9999    14.7000     69.787     29.000 250141.000     60.000    42.8632   -20.0773   -26.0759   120.0962    -0.1480    -3.0001   -55.0642   124.8829    26.8323    -0.9995     0.0010    14.0000     4.0000     4.0000     2.0000    16.0000     4.0000     6.0000    10.0000    -2.0020     2.0025   159.4167   -41.1662     2.1430    35.6999     5.0055     5.0020     5.0000     5.000
     58     1.1200     0.0000     0.8800    20.8002    14.7000     70.116     23.000 250141.000     60.000    42.9838   -20.0773   -26.1504   120.0962    -0.1480    -3.0001   -54.8966   124.5660    27.0679    -0.9995     0.0010    14.0000     4.0000     4.0000     2.0000    16.0000     4.0000     6.0000    10.0000    -2.0020     2.0025   159.4167   -41.1662     2.1430    35.5002     4.9945     4.9968     5.0000     5.000
     59     1.1199     0.0000     0.8800    20.6000    14.7000     70.257     42.000 250141.000     60.000    43.1054   -20.0773   -26.2258   120.0962    -0.1480    -3.0001   -54.7287   124.2511    27.2988    -0.9995     0.0010    14.0000     4.0000     4.0000     2.0000    16.0000     4.0000     6.0000    10.0000    -2.0020     2.0025   159.4167   -41.1662     2.1429    35.3000     5.0014     4.9998     5.0000     5.000
     60     1.1200     0.0000     0.8800    20.4003    14.7000     70.106     26.000 250141.000     60.000    43.2280   -20.0773   -26.3016   120.0962    -0.1480    -3.0001   -54.5603   123.9375    27.5347    -0.9995     0.0010    14.0000     4.0000     4.0000     2.0000    16.0000     4.0000     6.0000    10.0000    -2.0020     2.0025   159.4167   -41.1662     2.1430    35.1003     5.0030     4.9971     5.0000     5.000
     61     1.1200     0.0000     0.8800    20.1998    14.7000     70.584     30.000 250141.000     60.000    43.3517   -20.0773   -26.3784   120.0962    -0.1480    -3.0001   -54.3916   123.6248    27.7670    -0.9995     0.0010    14.0000     4.0000     4.0000     2.0000    16.0000     4.0000     6.0000    10.0000    -2.0020     2.0025   159.4167   -41.1662     2.1430    34.8998     4.9954     4.9966     5.0000     5.000
     62     1.1200     0.0000     0.8800    19.9997    14.7000     70.649     23.000 250141.000     60.000    43.4765   -20.0773   -26.4557   120.0962    -0.1480    -3.0001   -54.2224   123.3139    27.9975    -0.9995     0.0010    14.0000     4.0000     4.0000     2.0000    16.0000     4.0000     6.0000    10.0000    -2.0020     2.0025   159.4167   -41.1662     2.1430    34.6997     5.0055     4.9952     5.0000     5.000
     63     1.1200     0.0000     0.8801    19.8010    14.7000     71.092     30.000 250141.000     60.000    43.6023   -20.0773   -26.5332   120.0962    -0.1480    -3.0001   -54.0529   123.0035    28.2270    -0.9995     0.0010    14.0000     4.0000     4.0000     2.0000    16.0000     4.0000     6.0000    10.0000    -2.0020     2.0025   159.4167   -41.1662     2.1430    34.5009     5.0064     4.9972     5.0000     5.000
     64     1.1200     0.0000     0.8800    19.5999    14.7000     71.348     31.000 250141.000     60.000    43.7292   -20.0773   -26.6123   120.0962    -0.1480    -3.0001   -53.8830   122.6947    28.4544    -0.9995     0.0010    14.0000     4.0000     4.0000     2.0000    16.0000     4.0000     6.0000    10.0000    -2.0020     2.0025   159.4167   -41.1662     2.1430    34.2998     5.0024     5.0019     5.0000     5.000
     65     1.1200     0.0000     0.8800    19.3997    14.7000     71.897     27.000 250141.000     60.000    43.8573   -20.0773   -26.6918   120.0962    -0.1480    -3.0001   -53.7126   122.3869    28.6794    -0.9995     0.0010    14.0000     4.0000     4.0000     2.0000    16.0000     4.0000     6.0000    10.0000    -2.0020     2.0025   159.4167   -41.1662     2.1429    34.0997     4.9953     4.9962     5.0000     5.000
     66     1.1199     0.0000     0.8800    19.2000    14.7000     72.192     30.000 250141.000     60.000    43.9865   -20.0773   -26.7717   120.0962    -0.1480    -3.0001   -53.5418   122.0805    28.9042    -0.9995     0.0010    14.0000     4.0000     4.0000     2.0000    16.0000     4.0000     6.0000    10.0000    -2.0020     2.0025   159.4167   -41.1662     2.1429    33.9000     5.0032     5.0001     5.0000     5.000
     67     1.1200     0.0000     0.8800    18.9998    14.7000     72.760     37.000 250141.000     60.000    44.1168   -20.0773   -26.8526   120.0962    -0.1480    -3.0001   -53.3706   121.7750    29.1296    -0.9995     0.0010    14.0000     4.0000     4.0000     2.0000    16.0000     4.0000     6.0000    10.0000    -2.0020     2.0025   159.4167   -41.1662     2.1429    33.6998     4.9969     4.9981     5.0000     5.000
     68     1.1200     0.0000     0.8800    18.7998    14.7000     73.516     28.000 250141.000     60.000    44.2483   -20.0773   -26.9341   120.0962    -0.1480    -3.0001   -53.1990   121.4703    29.3553    -0.9995     0.0010    14.0000     4.0000     4.0000     2.0000    16.0000     4.0000     6.0000    10.0000    -2.0020     2.0025   159.4167   -41.1662     2.1430    33.4998     4.9950     5.0021     5.0000     5.000
     69     1.1200     0.0000     0.8800    18.6006    14.7000     74.040     25.000 250141.000     60.000    44.3810   -20.0773   -27.0161   120.0962    -0.1480    -3.0001   -53.0269   121.1664    29.5764    -0.9995     0.0010    14.0000     4.0000     4.0000     2.0000    16.0000     4.0000     6.0000    10.0000    -2.0020     2.0025   159.4167   -41.1662     2.1430    33.3006     4.9966     5.0018     5.0000     5.000
     70     1.1200     0.0000     0.8800    18.3998    14.7000     74.139     30.000 250141.000     60.000    44.5149   -20.0773   -27.0995   120.0962    -0.1480    -3.0001   -52.8544   120.8642    29.7977    -0.9995     0.0010    14.0000     4.0000     4.0000     2.0000    16.0000     4.0000     6.0000    10.0000    -2.0020     2.0025   159.4167   -41.1662     2.1430    33.0998     5.0090     4.9975     5.0000     5.000
     71     1.1200     0.0000     0.8800    18.2000    14.7000     74.277     29.000 250141.000     60.000    44.6500   -20.0773   -27.1832   120.0962    -0.1480    -3.0001   -52.6815   120.5619    30.0177    -0.9995     0.0010    14.0000     4.0000     4.0000     2.0000    16.0000     4.0000     6.0000    10.0000    -2.0020     2.0025   159.4167   -41.1662     2.1430    32.9000     5.0054     5.0066     5.0000     5.000
     72     1.1201     0.0000     0.8800    18.0001    14.7000     75.007     36.000 250141.000     60.000    44.7863   -20.0773   -27.2678   120.0962    -0.1480    -3.0001   -52.5081   120.2610    30.2372    -0.9995     0.0010    14.0000     4.0000     4.0000     2.0000    16.0000     4.0000     6.0000    10.0000    -2.0020     2.0025   159.4167   -41.1662     2.1430    32.7001     5.0064     4.9990     5.0000     5.000
     73     1.1200     0.0000     0.8800    17.7999    14.7000     75.399     34.000 250141.000     60.000    44.9239   -20.0773   -27.3533   120.0962    -0.1480    -3.0001   -52.3343   119.9608    30.4546    -0.9995     0.0010    14.0000     4.0000     4.0000     2.0000    16.0000     4.0000     6.0000    10.0000    -2.0020     2.0025   159.4167   -41.1662     2.1430    32.4999     4.9942     5.0019     5.0000     5.000
     74     1.1200     0.0000     0.8800    17.6000    14.7000     75.359     33.000 250141.000     60.000    45.0627   -20.0773   -27.4394   120.0962    -0.1480    -3.0001   -52.1600   119.6612    30.6693    -0.9995     0.0010    14.0000     4.0000     4.0000     2.0000    16.0000     4.0000     6.0000    10.0000    -2.0020     2.0025   159.4167   -41.1662     2.1429    32.3000     4.9958     5.0017     5.0000     5.000
     75     1.1200     0.0000     0.8800    17.4002    14.7000     75.784     25.000 250141.000     60.000    45.2029   -20.0773   -27.5264   120.0962    -0.1480    -3.0001   -51.9853   119.3626    30.8845    -0.9995     0.0010    14.0000     4.0000     4.0000     2.0000    16.0000     4.0000     6.0000    10.0000    -2.0020     2.0025   159.4167   -41.1662     2.1429    32.1002     5.0075     4.9963     5.0000     5.000
     76     1.1200     0.0000     0.8800    17.1997    14.7000     76.193     26.000 250141.000     60.000    45.3444   -20.0773   -27.6144   120.0962    -0.1480    -3.0001   -51.8102   119.0645    31.0994    -0.9995     0.0010    14.0000     4.0000     4.0000     2.0000    16.0000     4.0000     6.0000    10.0000    -2.0020     2.0025   159.4167   -41.1662     2.1429    31.8997     4.9958     5.0034     5.0000     5.000
     77     1.1200     0.0000     0.8800    16.9998    14.7000     76.371     30.000 250141.000     60.000    45.4872   -20.0773   -27.7031   120.0962    -0.1480    -3.0001   -51.6345   118.7669    31.3142    -0.9995     0.0010    14.0000     4.0000     4.0000     2.0000    16.0000     4.0000     6.0000    10.0000    -2.0020     2.0025   159.4167   -41.1662     2.1429    31.6998     5.0029     5.0028     5.0000     5.000
     78     1.1200     0.0000     0.8800    16.8005    14.7000     77.181     36.000 250141.000     60.000    45.6314   -20.0773   -27.7924   120.0962    -0.1480    -3.0001   -51.4584   118.4704    31.5268    -0.9995     0.0010    14.0000     4.0000     4.0000     2.0000    16.0000     4.0000     6.0000    10.0000    -2.0020     2.0025   159.4167   -41.1662     2.1429    31.5005     4.9960     5.0013     5.0000     5.000
     79     1.1200     0.0000     0.8800    16.5999    14.7000     76.976     22.000 250141.000     60.000    45.7769   -20.0773   -27.8831   120.0962    -0.1480    -3.0001   -51.2818   118.1743    31.7408    -0.9995     0.0010    14.0000     4.0000     4.0000     2.0000    16.0000     4.0000     6.0000    10.0000    -2.0020     2.0025   159.4167   -41.1662     2.1430    31.2999     5.0063     5.0024     5.0000     5.000
     80     1.1200     0.0000     0.8800    16.3999    14.7000     76.869     28.000 250141.000     60.000    45.9239   -20.0773   -27.9744   120.0962    -0.1480    -3.0001   -51.1048   117.8783    31.9528    -0.9995     0.0010    14.0000     4.0000     4.0000     2.0000    16.0000     4.0000     6.0000    10.0000    -2.0020     2.0025   159.4167   -41.1662     2.1430    31.0999     5.0027     5.0004     5.0000     5.000
     81     1.1200     0.0000     0.8800    16.2002    14.7000     77.078     32.000 250141.000     60.000    46.0723   -20.0773   -28.0665   120.0962    -0.1480    -3.0001   -50.9273   117.5833    32.1626    -0.9995     0.0010    14.0000     4.0000     4.0000     2.0000    16.0000     4.0000     6.0000    10.0000    -2.0020     2.0025   159.4167   -41.1662     2.1430    30.9002     4.9997     5.0010     5.0000     5.000
     82     1.1200     0.0000     0.8800    15.9999    14.7000     77.259     33.000 250141.000     60.000    46.2221   -20.0773   -28.1598   120.0962    -0.1480    -3.0001   -50.7492   117.2885    32.3729    -0.9995     0.0010    14.0000     4.0000     4.0000     2.0000    16.0000     4.0000     6.0000    10.0000    -2.0020     2.0025   159.4167   -41.1662     2.1430    30.6999     4.9961     5.0022     5.0000     5.000
     83     1.1200     0.0000     0.8800    15.8001    14.7000     77.377     23.000 250141.000     60.000    46.3734   -20.0773   -28.2538   120.0962    -0.1480    -3.0001   -50.5708   116.9945    32.5809    -0.9995     0.0010    14.0000     4.0000     4.0000     2.0000    16.0000     4.0000     6.0000    10.0000    -2.0020     2.0025   159.4167   -41.1662     2.1430    30.5001     4.9990     4.9966     5.0000     5.000
     84     1.1200     0.0000     0.8800    15.5997    14.7000     77.968     32.000 250141.000     60.000    46.5262   -20.0773   -28.3490   120.0962    -0.1480    -3.0001   -50.3918   116.7005    32.7898    -0.9995     0.0010    14.0000     4.0000     4.0000     2.0000    16.0000     4.0000     6.0000    10.0000    -2.0020     2.0025   159.4167   -41.1662     2.1430    30.2997     5.0059     4.9977     5.0000     5.000
     85     1.1200     0.0000     0.8800    15.3999    14.7000     78.063     20.000 250141.000     60.000    46.6805   -20.0773   -28.4449   120.0962    -0.1480    -3.0001   -50.2122   116.4074    32.9981    -0.9995     0.0010    14.0000     4.0000     4.0000     2.0000    16.0000     4.0000     6.0000    10.0000    -2.0020     2.0025   159.4167   -41.1662     2.1430    30.0999     4.9968     5.0009     5.0000     5.000
     86     1.1200     0.0000     0.8800    15.2003    14.7000     78.823     19.000 250141.000     60.000    46.8364   -20.0773   -28.5417   120.0962    -0.1480    -3.0001   -50.0322   116.1145    33.2036    -0.9995     0.0010    14.0000     4.0000     4.0000     2.0000    16.0000     4.0000     6.0000    10.0000    -2.0020     2.0025   159.4167   -41.1662     2.1430    29.9003     5.0062     5.0038     5.0000     5.000
     87     1.1200     0.0000     0.8800    14.9997    14.7000     79.089     35.000 250141.000     60.000    46.9938   -20.0773   -28.6400   120.0962    -0.1480    -3.0001   -49.8518   115.8214    33.4097    -0.9995     0.0010    14.0000     4.0000     4.0000     2.0000    16.0000     4.0000     6.0000    10.0000    -2.0020     2.0025   159.4167   -41.1662     2.1430    29.6997     5.0055     5.0009     5.0000     5.000
     88     1.1200     0.0000     0.8800    14.8001    14.7000     78.446     26.000 250141.000     60.000    47.1528   -20.0773   -28.7388   120.0962    -0.1480    -3.0001   -49.6707   115.5296    33.6144    -0.9995     0.0010    14.0000     4.0000     4.0000     2.0000    16.0000     4.0000     6.0000    10.0000    -2.0020     2.0025   159.4167   -41.1662     2.1430    29.5001     5.0057     5.0021     5.0000     5.000
     89     1.1200     0.0000     0.8800    14.6000    14.7000     78.305     16.000 250141.000     60.000    47.3135   -20.0773   -28.8389   120.0962    -0.1480    -3.0001   -49.4892   115.2373    33.8195    -0.9995     0.0010    14.0000     4.0000     4.0000     2.0000    16.0000     4.0000     6.0000    10.0000    -2.0020     2.0025   159.4167   -41.1662     2.1430    29.3000     5.0021     4.9945     5.0000     5.000
     90     1.1200     0.0000     0.8800    14.3999    14.7000     77.343     17.000 250141.000     60.000    47.4758   -20.0773   -28.9400   120.0962    -0.1480    -3.0001   -49.3071   114.9454    34.0231    -0.9995     0.0010    14.0000     4.0000     4.0000     2.0000    16.0000     4.0000     6.0000    10.0000    -2.0020     2.0025   159.4167   -41.1662     2.1430    29.0999     4.9940     4.9998     5.0000     5.000
     91     1.1200     0.0000     0.8800    14.2002    14.7000     76.368     22.000 250141.000     60.000    47.6398   -20.0773   -29.0420   120.0962    -0.1480    -3.0001   -49.1245   114.6544    34.2272    -0.9995     0.0010    14.0000     4.0000     4.0000     2.0000    16.0000     4.0000     6.0000    10.0000    -2.0020     2.0025   159.4167   -41.1662     2.1430    28.9001     4.9999     4.9962     5.0000     5.000
     92     1.1200     0.0000     0.8800    14.0000    14.7000     75.482     16.000 250141.000     60.000    47.8055   -20.0773   -29.1453   120.0962    -0.1480    -3.0001   -48.9414   114.3624    34.4298    -0.9995     0.0010    14.0000     4.0000     4.0000     2.0000    16.0000     4.0000     6.0000    10.0000    -2.0020     2.0025   159.4167   -41.1662     2.1430    28.7000     4.9977     5.0013     5.0000     5.000
     93     1.1200     0.0000     0.8800    13.8001    14.7000     74.744     15.000 250141.000     60.000    47.9729   -20.0773   -29.2497   120.0962    -0.1480    -3.0001   -48.7577   114.0714    34.6311    -0.9995     0.0010    14.0000     4.0000     4.0000     2.0000    16.0000     4.0000     6.0000    10.0000    -2.0020     2.0025   159.4167   -41.1662     2.1430    28.5001     4.9993     4.9984     5.0000     5.000
     94     1.1200     0.0000     0.8800    13.5998    14.7000     73.829     17.000 250141.000     60.000    48.1422   -20.0773   -29.3553   120.0962    -0.1480    -3.0001   -48.5734   113.7805    34.8321    -0.9995     0.0010    14.0000     4.0000     4.0000     2.0000    16.0000     4.0000     6.0000    10.0000    -2.0020     2.0025   159.4167   -41.1662     2.1430    28.2998     5.0006     4.9991     5.0000     5.000
     95     1.1201     0.0000     0.8800    13.4003    14.7000     73.839     11.000 250141.000     60.000    48.3132   -20.0773   -29.4617   120.0962    -0.1480    -3.0001   -48.3886   113.4896    35.0335    -0.9995     0.0010    14.0000     4.0000     4.0000     2.0000    16.0000     4.0000     6.0000    10.0000    -2.0020     2.0025   159.4167   -41.1662     2.1431    28.1003     4.9966     5.0013     5.0000     5.000
     96     1.1200     0.0000     0.8800    13.1999    14.7000     73.921      9.000 250141.000     60.000    48.4860   -20.0773   -29.5697   120.0962    -0.1480    -3.0001   -48.2033   113.1988    35.2331    -0.9995     0.0010    14.0000     4.0000     4.0000     2.0000    16.0000     4.0000     6.0000    10.0000    -2.0020     2.0025   159.4167   -41.1662     2.1430    27.8999     4.9935     5.0002     5.0000     5.000
     97     1.1201     0.0000     0.8800    13.0001    14.7000     74.644      7.000 250141.000     60.000    48.6608   -20.0773   -29.6786   120.0962    -0.1480    -3.0001   -48.0174   112.9079    35.4331    -0.9995     0.0010    14.0000     4.0000     4.0000     2.0000    16.0000     4.0000     6.0000    10.0000    -2.0020     2.0025   159.4167   -41.1662     2.1431    27.7001     5.0043     4.9987     5.0000     5.000
     98     1.1200     0.0000     0.8800    12.7998    14.7000     75.535      3.000 250141.000     60.000    48.8374   -20.0773   -29.7890   120.0962    -0.1480    -3.0001   -47.8309   112.6171    35.6317    -0.9995     0.0010    14.0000     4.0000     4.0000     2.0000    16.0000     4.0000     6.0000    10.0000    -2.0020     2.0025   159.4167   -41.1662     2.1430    27.4998     5.0005     5.0047     5.0000     5.000
     99     1.1201     0.0000     0.8800    12.6000    14.7000     76.808     17.000 250141.000     60.000    49.0160   -20.0773   -29.9003   120.0962    -0.1480    -3.0001   -47.6438   112.3264    35.8303    -0.9995     0.0010    14.0000     4.0000     4.0000     2.0000    16.0000     4.0000     6.0000    10.0000    -2.0020     2.0025   159.4167   -41.1662     2.1431    27.3000     4.9950     4.9978     5.0000     5.000
    100     1.1200     0.0000     0.8800    12.4000    14.7000     77.913     11.000 250141.000     60.000    49.1965   -20.0773   -30.0130   120.0962    -0.1480    -3.0001   -47.4562   112.0359    36.0274    -0.9995     0.0010    14.0000     4.0000     4.0000     2.0000    16.0000     4.0000     6.0000    10.0000    -2.0020     2.0025   159.4167   -41.1662     2.1430    27.1000     4.9971     5.0047     5.0000     5.000
    101     1.1201     0.0000     0.8800    12.2000    14.7000     78.756     12.000 250141.000     60.000    49.3790   -20.0773   -30.1270   120.0962    -0.1480    -3.0001   -47.2680   111.7450    36.2250    -0.9995     0.0010    14.0000     4.0000     4.0000     2.0000    16.0000     4.0000     6.0000    10.0000    -2.0020     2.0025   159.4167   -41.1662     2.1431    26.9000     4.9918     4.9953     5.0000     5.000
    102     1.1200     0.0000     0.8800    12.0001    14.7000     79.605     10.000 250141.000     60.000    49.5636   -20.0773   -30.2423   120.0962    -0.1480    -3.0001   -47.0791   111.4545    36.4207    -0.9995     0.0010    14.0000     4.0000     4.0000     2.0000    16.0000     4.0000     6.0000    10.0000    -2.0020     2.0025   159.4167   -41.1662     2.1430    26.7001     5.0073     4.9984     5.0000     5.000
    103     1.1200     0.0000     0.8800    11.8001    14.7000     79.444     10.000 250141.000     60.000    49.7503   -20.0773   -30.3589   120.0962    -0.1480    -3.0001   -46.8897   111.1633    36.6166    -0.9995     0.0010    14.0000     4.0000     4.0000     2.0000    16.0000     4.0000     6.0000    10.0000    -2.0020     2.0025   159.4167   -41.1662     2.1430    26.5001     5.0038     5.0007     5.0000     5.000
    104     1.1200     0.0000     0.8800    11.6000    14.7000     79.238     16.000 250141.000     60.000    49.9392   -20.0773   -30.4770   120.0962    -0.1480    -3.0001   -46.6996   110.8723    36.8116    -0.9995     0.0010    14.0000     4.0000     4.0000     2.0000    16.0000     4.0000     6.0000    10.0000    -2.0020     2.0025   159.4167   -41.1662     2.1430    26.3000     5.0043     4.9992     5.0000     5.000
    105     1.1200     0.0000     0.8800    11.3997    14.7000     78.847     14.000 250141.000     60.000    50.1301   -20.0773   -30.5966   120.0962    -0.1480    -3.0001   -46.5090   110.5810    37.0065    -0.9995     0.0010    14.0000     4.0000     4.0000     2.0000    16.0000     4.0000     6.0000    10.0000    -2.0020     2.0025   159.4167   -41.1662     2.1430    26.0997     4.9995     4.9982     5.0000     5.000
    106     1.1201     0.0000     0.8800    11.2000    14.7000     78.420     12.000 250141.000     60.000    50.3233   -20.0773   -30.7172   120.0962    -0.1480    -3.0001   -46.3176   110.2899    37.2026    -0.9995     0.0010    14.0000     4.0000     4.0000     2.0000    16.0000     4.0000     6.0000    10.0000    -2.0020     2.0025   159.4167   -41.1662     2.1431    25.9000     5.0037     4.9971     5.0000     5.000
    107     1.1200     0.0000     0.8800    11.0002    14.7000     77.544      3.000 250141.000     60.000    50.5187   -20.0773   -30.8393   120.0962    -0.1480    -3.0001   -46.1257   109.9982    37.3955    -0.9995     0.0010    14.0000     4.0000     4.0000     2.0000    16.0000     4.0000     6.0000    10.0000    -2.0020     2.0025   159.4167   -41.1662     2.1430    25.7002     5.0045     4.9976     5.0000     5.000
    108     1.1200     0.0000     0.8800    10.8001    14.7000     77.488     13.000 250141.000     60.000    50.7164   -20.0773   -30.9631   120.0962    -0.1480    -3.0001   -45.9331   109.7061    37.5890    -0.9995     0.0010    14.0000     4.0000     4.0000     2.0000    16.0000     4.0000     6.0000    10.0000    -2.0020     2.0025   159.4167   -41.1662     2.1430    25.5000     4.9979     4.9972     5.0000     5.000
    109     1.1200     0.0000     0.8800    10.6001    14.7000     77.583     15.000 250141.000     60.000    50.9165   -20.0773   -31.0883   120.0962    -0.1480    -3.0001   -45.7399   109.4147    37.7811    -0.9995     0.0010    14.0000     4.0000     4.0000     2.0000    16.0000     4.0000     6.0000    10.0000    -2.0020     2.0025   159.4167   -41.1662     2.1430    25.3001     5.0064     5.0004     5.0000     5.000
    110     1.1200     0.0000     0.8800    10.3997    14.7000     77.714     11.000 250141.000     60.000    51.1190   -20.0773   -31.2153   120.0962    -0.1480    -3.0001   -45.5460   109.1218    37.9740    -0.9995     0.0010    14.0000     4.0000     4.0000     2.0000    16.0000     4.0000     6.0000    10.0000    -2.0020     2.0025   159.4167   -41.1662     2.1430    25.0997     4.9951     4.9994     5.0000     5.000
    111     1.1200     0.0000     0.8800    10.2003    14.7000     78.101     14.000 250141.000     60.000    51.3239   -20.0773   -31.3433   120.0962    -0.1480    -3.0001   -45.3514   108.8296    38.1658    -0.9995     0.0010    14.0000     4.0000     4.0000     2.0000    16.0000     4.0000     6.0000    10.0000    -2.0020     2.0025   159.4167   -41.1662     2.1430    24.9003     4.9976     4.9987     5.0000     5.000
    112     1.1200     0.0000     0.8801    10.0004    14.7000     78.685     12.000 250141.000     60.000    51.5312   -20.0773   -31.4731   120.0962    -0.1480    -3.0001   -45.1562   108.5364    38.3577    -0.9995     0.0010    14.0000     4.0000     4.0000     2.0000    16.0000     4.0000     6.0000    10.0000    -2.0020     2.0025   159.4167   -41.1662     2.1430    24.7004     4.9955     4.9960     5.0000     5.000
    113     1.1200     0.0000     0.8800     9.7995    14.7000     79.690     12.000 250141.000     60.000    51.7411   -20.0773   -31.6053   120.0962    -0.1480    -3.0001   -44.9603   108.2434    38.5486    -0.9995     0.0010    14.0000     4.0000     4.0000     2.0000    16.0000     4.0000     6.0000    10.0000    -2.0020     2.0025   159.4167   -41.1662     2.1430    24.4995     4.9966     4.9972     5.0000     5.000
    114     1.1200     0.0000     0.8800     9.5998    14.7000     80.951     10.000 250141.000     60.000    51.9536   -20.0773   -31.7383   120.0962    -0.1480    -3.0001   -44.7637   107.9495    38.7376    -0.9995     0.0010    14.0000     4.0000     4.0000     2.0000    16.0000     4.0000     6.0000    10.0000    -2.0020     2.0025   159.4167   -41.1662     2.1429    24.2998     4.9985     4.9992     5.0000     5.000
    115     1.1200     0.0000     0.8800     9.4001    14.7000     82.254     14.000 250141.000     60.000    52.1687   -20.0773   -31.8730   120.0962    -0.1480    -3.0001   -44.5664   107.6554    38.9278    -0.9995     0.0010    14.0000     4.0000     4.0000     2.0000    16.0000     4.0000     6.0000    10.0000    -2.0020     2.0025   159.4167   -41.1662     2.1429    24.1001     4.9976     4.9994     5.0000     5.000
    116     1.1200     0.0000     0.8800     9.2000    14.7000     82.588      2.000 250141.000     60.000    52.3866   -20.0773   -32.0097   120.0962    -0.1480    -3.0001   -44.3684   107.3606    39.1177    -0.9995     0.0010    14.0000     4.0000     4.0000     2.0000    16.0000     4.0000     6.0000    10.0000    -2.0020     2.0025   159.4167   -41.1662     2.1429    23.9000     4.9983     5.0021     5.0000     5.000
    117     1.1200     0.0000     0.8800     9.0000    14.7000     81.998     10.000 250141.000     60.000    52.6071   -20.0773   -32.1481   120.0962    -0.1480    -3.0001   -44.1697   107.0658    39.3075    -0.9995     0.0010    14.0000     4.0000     4.0000     2.0000    16.0000     4.0000     6.0000    10.0000    -2.0020     2.0025   159.4167   -41.1662     2.1429    23.7000     4.9936     4.9960     5.0000     5.000
    118     1.1200     0.0000     0.8800     8.8001    14.7000     80.621     12.000 250141.000     60.000    52.8305   -20.0773   -32.2883   120.0962    -0.1480    -3.0001   -43.9703   106.7704    39.4969    -0.9995     0.0010    14.0000     4.0000     4.0000     2.0000    16.0000     4.0000     6.0000    10.0000    -2.0020     2.0025   159.4167   -41.1662     2.1429    23.5001     5.0056     5.0025     5.0000     5.000
    119     1.1200     0.0000     0.8800     8.5998    14.7000     78.273     10.000 250141.000     60.000    53.0568   -20.0773   -32.4306   120.0962    -0.1480    -3.0001   -43.7701   106.4744    39.6855    -0.9995     0.0010    14.0000     4.0000     4.0000     2.0000    16.0000     4.0000     6.0000    10.0000    -2.0020     2.0025   159.4167   -41.1662     2.1429    23.2998     5.0027     4.9987     5.0000     5.000
    120     1.1200     0.0000     0.8800     8.4002    14.7000     76.079      6.000 250141.000     60.000    53.2860   -20.0773   -32.5743   120.0962    -0.1480    -3.0001   -43.5692   106.1774    39.8733    -0.9995     0.0010    14.0000     4.0000     4.0000     2.0000    16.0000     4.0000     6.0000    10.0000    -2.0020     2.0025   159.4167   -41.1662     2.1429    23.1001     4.9950     5.0056     5.0000     5.000
    121     1.1200     0.0000     0.8800     8.2000    14.7000     73.785      9.000 250141.000     60.000    53.5181   -20.0773   -32.7203   120.0962    -0.1480    -3.0001   -43.3675   105.8803    40.0622    -0.9995     0.0010    14.0000     4.0000     4.0000     2.0000    16.0000     4.0000     6.0000    10.0000    -2.0020     2.0025   159.4167   -41.1662     2.1429    22.9000     5.0048     5.0029     5.0000     5.000
    122     1.1200     0.0000     0.8800     8.0000    14.7000     72.450      5.000 250141.000     60.000    53.7534   -20.0773   -32.8682   120.0962    -0.1480    -3.0001   -43.1651   105.5825    40.2510    -0.9995     0.0010    14.0000     4.0000     4.0000     2.0000    16.0000     4.0000     6.0000    10.0000    -2.0020     2.0025   159.4167   -41.1662     2.1430    22.7000     5.0009     4.9990     5.0000     5.000
# Sum of Counts = 2471
# Center of Mass = 20.607050+/-0.597927
# Full Width Half-Maximum = 11.682979+/-0.233589
# 7:54:47 AM  10/28/2024   scan completed.
