# scan = 83
# date = 10/25/2024
# time = 8:54:51 PM
# proposal = 34735
# experiment = Magnons and paramagnon coupling in MnTe
# experiment_number = 823
# command = scan h 1.0 k 0.0 l 1.0 e 30.0 5.0 0.25 ef 14.7 preset mcu 60
# builtin_command = scan h 1.0 k 0.0 l 1.0 e 30.0 5.0 0.25 ef 14.7 preset mcu 60
# users = Benjamin Frandsen, Songxue Chi, George Yumnam, Huibo Cao, Michael Manley, Raphael Hermann, Eleanor Clements
# local_contact = Eleanor Clements
# scan_title = Scans starting - checking sides hkl = 101 
# monochromator = PG002
# analyzer = Pg002
# sense = -+-
# collimation = 48-40-40-120
# samplename = MnTe
# sampletype = crystal
# samplemosaic = 30.000000
# latticeconstants = 4.113532,4.113532,6.656209,90.000000,90.000000,120.000000
# ubmatrix = 0.008885,0.000200,-0.150137,0.280567,0.140284,0.004756,-0.000155,-0.243141,0.002621
# mode = 0
# plane_normal = 0.017452,-0.000000,0.999848
# ubconf = UB25Oct2024_84509PM.ini
# preset_type = normal 
# preset_channel = mcu
# preset_value = 60.000000
# def_x = e
# def_y = detector
# col_headers = 
#   Pt.          h          k          l          e         ef       time   detector    monitor        mcu focal_length         m1         m2   mcrystal       marc     mtrans     mfocus         s1         s2        sgl        sgu        bbb        bbl        bbr        bbt        bab        bal        bar        bat        stl        stu         a1         a2          q         ei        vti     sample       temp     temp_2
      1     1.0001     0.0000     1.0000    30.0023    14.7000     73.571     11.000 250141.000     60.000    38.3059   -20.0773   -23.2616   120.0962    -0.1480    -3.0001   -62.2448   147.6287     4.5266    -0.9992     0.0015    14.0000     4.0000     4.0000     2.0000    16.0000     4.0000     6.0000    10.0000    -2.0000     2.0025   159.4167   -41.1662     2.0006    44.7023     5.0050     4.9997     5.0000     5.000
      2     1.0001     0.0000     0.9998    29.7503    14.7000     72.843     17.000 250141.000     60.000    38.4134   -20.0773   -23.3284   120.0962    -0.1480    -3.0001   -62.0538   145.8588     5.8553    -0.9992     0.0015    14.0000     4.0000     4.0000     2.0000    16.0000     4.0000     6.0000    10.0000    -2.0000     2.0025   159.4167   -41.1662     2.0005    44.4503     5.0047     4.9974     5.0000     5.000
      3     1.0000     0.0000     1.0000    29.5003    14.7000     72.287     13.000 250141.000     60.000    38.5219   -20.0773   -23.3952   120.0962    -0.1480    -3.0001   -61.8623   144.4155     6.9280    -0.9992     0.0015    14.0000     4.0000     4.0000     2.0000    16.0000     4.0000     6.0000    10.0000    -2.0000     2.0025   159.4167   -41.1662     2.0005    44.2002     5.0030     5.0007     5.0000     5.000
      4     1.0000     0.0000     0.9999    29.2490    14.7000     71.621     14.000 250141.000     60.000    38.6313   -20.0773   -23.4629   120.0962    -0.1480    -3.0001   -61.6704   143.1640     7.8646    -0.9992     0.0015    14.0000     4.0000     4.0000     2.0000    16.0000     4.0000     6.0000    10.0000    -2.0000     2.0025   159.4167   -41.1662     2.0004    43.9490     5.0061     4.9987     5.0000     5.000
      5     1.0000     0.0000     1.0000    29.0004    14.7000     71.097     13.000 250141.000     60.000    38.7417   -20.0773   -23.5305   120.0962    -0.1480    -3.0001   -61.4781   142.0410     8.6992    -0.9992     0.0015    14.0000     4.0000     4.0000     2.0000    16.0000     4.0000     6.0000    10.0000    -2.0000     2.0025   159.4167   -41.1662     2.0005    43.7004     5.0053     5.0008     5.0000     5.000
      6     1.0000     0.0000     0.9999    28.7500    14.7000     70.668     11.000 250141.000     60.000    38.8530   -20.0773   -23.5992   120.0962    -0.1480    -3.0001   -61.2854   141.0132     9.4650    -0.9992     0.0015    14.0000     4.0000     4.0000     2.0000    16.0000     4.0000     6.0000    10.0000    -2.0000     2.0025   159.4167   -41.1662     2.0005    43.4500     4.9972     5.0015     5.0000     5.000
      7     1.0000     0.0000     0.9999    28.5001    14.7000     70.697     15.000 250141.000     60.000    38.9652   -20.0773   -23.6683   120.0962    -0.1480    -3.0001   -61.0922   140.0575    10.1748    -0.9992     0.0015    14.0000     4.0000     4.0000     2.0000    16.0000     4.0000     6.0000    10.0000    -2.0000     2.0025   159.4167   -41.1662     2.0005    43.2001     5.0033     4.9999     5.0000     5.000
      8     1.0000     0.0000     0.9999    28.2503    14.7000     70.707     11.000 250141.000     60.000    39.0785   -20.0773   -23.7381   120.0962    -0.1480    -3.0001   -60.8985   139.1608    10.8400    -0.9992     0.0015    14.0000     4.0000     4.0000     2.0000    16.0000     4.0000     6.0000    10.0000    -2.0000     2.0025   159.4167   -41.1662     2.0005    42.9503     4.9983     4.9989     5.0000     5.000
      9     1.0000     0.0000     0.9999    27.9998    14.7000     70.362      8.000 250141.000     60.000    39.1927   -20.0773   -23.8086   120.0962    -0.1480    -3.0001   -60.7044   138.3129    11.4673    -0.9992     0.0015    14.0000     4.0000     4.0000     2.0000    16.0000     4.0000     6.0000    10.0000    -2.0000     2.0025   159.4167   -41.1662     2.0005    42.6998     4.9950     4.9980     5.0000     5.000
     10     1.0000     0.0000     0.9999    27.7496    14.7000     69.738     14.000 250141.000     60.000    39.3079   -20.0773   -23.8797   120.0962    -0.1480    -3.0001   -60.5098   137.5048    12.0628    -0.9992     0.0015    14.0000     4.0000     4.0000     2.0000    16.0000     4.0000     6.0000    10.0000    -2.0000     2.0025   159.4167   -41.1662     2.0005    42.4496     4.9987     4.9992     5.0000     5.000
     11     1.0000     0.0000     1.0000    27.4999    14.7000     69.476      5.000 250141.000     60.000    39.4242   -20.0773   -23.9513   120.0962    -0.1480    -3.0001   -60.3147   136.7318    12.6317    -0.9992     0.0015    14.0000     4.0000     4.0000     2.0000    16.0000     4.0000     6.0000    10.0000    -2.0000     2.0025   159.4167   -41.1662     2.0005    42.1999     4.9988     4.9988     5.0000     5.000
     12     1.0000     0.0000     0.9999    27.2504    14.7000     68.762      7.000 250141.000     60.000    39.5415   -20.0773   -24.0235   120.0962    -0.1480    -3.0001   -60.1192   135.9888    13.1801    -0.9992     0.0015    14.0000     4.0000     4.0000     2.0000    16.0000     4.0000     6.0000    10.0000    -2.0000     2.0025   159.4167   -41.1662     2.0005    41.9504     5.0054     4.9984     5.0000     5.000
     13     0.9999     0.0000     1.0000    26.9999    14.7000     68.503     12.000 250141.000     60.000    39.6598   -20.0773   -24.0966   120.0962    -0.1480    -3.0001   -59.9232   135.2724    13.7018    -0.9992     0.0015    14.0000     4.0000     4.0000     2.0000    16.0000     4.0000     6.0000    10.0000    -2.0000     2.0025   159.4167   -41.1662     2.0004    41.6999     5.0073     5.0031     5.0000     5.000
     14     1.0000     0.0000     1.0000    26.7502    14.7000     67.317     18.000 250141.000     60.000    39.7792   -20.0773   -24.1702   120.0962    -0.1480    -3.0001   -59.7267   134.5789    14.2138    -0.9992     0.0015    14.0000     4.0000     4.0000     2.0000    16.0000     4.0000     6.0000    10.0000    -2.0000     2.0025   159.4167   -41.1662     2.0005    41.4502     4.9961     5.0039     5.0000     5.000
     15     1.0000     0.0000     1.0000    26.5000    14.7000     66.871      8.000 250141.000     60.000    39.8998   -20.0773   -24.2446   120.0962    -0.1480    -3.0001   -59.5297   133.9069    14.7051    -0.9992     0.0015    14.0000     4.0000     4.0000     2.0000    16.0000     4.0000     6.0000    10.0000    -2.0000     2.0025   159.4167   -41.1662     2.0005    41.2000     5.0040     5.0011     5.0000     5.000
     16     1.0000     0.0000     1.0000    26.2505    14.7000     66.243     17.000 250141.000     60.000    40.0214   -20.0773   -24.3194   120.0962    -0.1480    -3.0001   -59.3323   133.2536    15.1815    -0.9992     0.0015    14.0000     4.0000     4.0000     2.0000    16.0000     4.0000     6.0000    10.0000    -2.0000     2.0025   159.4167   -41.1662     2.0005    40.9505     4.9955     5.0013     5.0000     5.000
     17     1.0000     0.0000     1.0000    25.9999    14.7000     65.446     17.000 250141.000     60.000    40.1441   -20.0773   -24.3953   120.0962    -0.1480    -3.0001   -59.1343   132.6174    15.6453    -0.9992     0.0015    14.0000     4.0000     4.0000     2.0000    16.0000     4.0000     6.0000    10.0000    -2.0000     2.0025   159.4167   -41.1662     2.0005    40.6999     5.0064     4.9968     5.0000     5.000
     18     1.0000     0.0000     1.0000    25.7500    14.7000     64.680     28.000 250141.000     60.000    40.2680   -20.0773   -24.4717   120.0962    -0.1480    -3.0001   -58.9359   131.9960    16.0953    -0.9992     0.0015    14.0000     4.0000     4.0000     2.0000    16.0000     4.0000     6.0000    10.0000    -2.0000     2.0025   159.4167   -41.1662     2.0004    40.4500     5.0032     5.0012     5.0000     5.000
     19     1.0000     0.0000     1.0000    25.5009    14.7000     64.473     18.000 250141.000     60.000    40.3930   -20.0773   -24.5486   120.0962    -0.1480    -3.0001   -58.7370   131.3897    16.5361    -0.9992     0.0015    14.0000     4.0000     4.0000     2.0000    16.0000     4.0000     6.0000    10.0000    -2.0000     2.0025   159.4167   -41.1662     2.0005    40.2009     5.0059     5.0011     5.0000     5.000
     20     1.0000     0.0000     1.0000    25.2496    14.7000     64.014     25.000 250141.000     60.000    40.5192   -20.0773   -24.6269   120.0962    -0.1480    -3.0001   -58.5375   130.7957    16.9664    -0.9992     0.0015    14.0000     4.0000     4.0000     2.0000    16.0000     4.0000     6.0000    10.0000    -2.0000     2.0025   159.4167   -41.1662     2.0004    39.9496     5.0055     4.9982     5.0000     5.000
     21     1.0000     0.0000     1.0000    24.9995    14.7000     63.748     19.000 250141.000     60.000    40.6465   -20.0773   -24.7056   120.0962    -0.1480    -3.0001   -58.3375   130.2141    17.3878    -0.9992     0.0015    14.0000     4.0000     4.0000     2.0000    16.0000     4.0000     6.0000    10.0000    -2.0000     2.0025   159.4167   -41.1662     2.0005    39.6995     5.0062     5.0024     5.0000     5.000
     22     1.0000     0.0000     1.0000    24.7503    14.7000     63.524     11.000 250141.000     60.000    40.7751   -20.0773   -24.7847   120.0962    -0.1480    -3.0001   -58.1370   129.6432    17.7986    -0.9992     0.0015    14.0000     4.0000     4.0000     2.0000    16.0000     4.0000     6.0000    10.0000    -2.0000     2.0025   159.4167   -41.1662     2.0005    39.4503     4.9953     4.9985     5.0000     5.000
     23     1.0000     0.0000     1.0000    24.5002    14.7000     63.640     16.000 250141.000     60.000    40.9049   -20.0773   -24.8649   120.0962    -0.1480    -3.0001   -57.9360   129.0829    18.2034    -0.9992     0.0015    14.0000     4.0000     4.0000     2.0000    16.0000     4.0000     6.0000    10.0000    -2.0000     2.0025   159.4167   -41.1662     2.0005    39.2002     4.9953     4.9981     5.0000     5.000
     24     1.0000     0.0000     1.0000    24.2502    14.7000     63.910     21.000 250141.000     60.000    41.0360   -20.0773   -24.9459   120.0962    -0.1480    -3.0001   -57.7345   128.5318    18.5985    -0.9992     0.0015    14.0000     4.0000     4.0000     2.0000    16.0000     4.0000     6.0000    10.0000    -2.0000     2.0025   159.4167   -41.1662     2.0005    38.9502     5.0017     5.0023     5.0000     5.000
     25     1.0000     0.0000     0.9999    23.9993    14.7000     63.871     23.000 250141.000     60.000    41.1683   -20.0773   -25.0279   120.0962    -0.1480    -3.0001   -57.5324   127.9895    18.9886    -0.9992     0.0015    14.0000     4.0000     4.0000     2.0000    16.0000     4.0000     6.0000    10.0000    -2.0000     2.0025   159.4167   -41.1662     2.0005    38.6993     4.9923     5.0009     5.0000     5.000
     26     1.0000     0.0000     1.0000    23.7504    14.7000     64.344     23.000 250141.000     60.000    41.3020   -20.0773   -25.1101   120.0962    -0.1480    -3.0001   -57.3298   127.4558    19.3691    -0.9992     0.0015    14.0000     4.0000     4.0000     2.0000    16.0000     4.0000     6.0000    10.0000    -2.0000     2.0025   159.4167   -41.1662     2.0005    38.4504     4.9995     5.0026     5.0000     5.000
     27     1.0000     0.0000     1.0000    23.4997    14.7000     65.078     18.000 250141.000     60.000    41.4369   -20.0773   -25.1937   120.0962    -0.1480    -3.0001   -57.1267   126.9299    19.7431    -0.9992     0.0015    14.0000     4.0000     4.0000     2.0000    16.0000     4.0000     6.0000    10.0000    -2.0000     2.0025   159.4167   -41.1662     2.0004    38.1997     5.0032     5.0015     5.0000     5.000
     28     1.0000     0.0000     1.0000    23.2501    14.7000     65.753     25.000 250141.000     60.000    41.5732   -20.0773   -25.2778   120.0962    -0.1480    -3.0001   -56.9230   126.4108    20.1120    -0.9992     0.0015    14.0000     4.0000     4.0000     2.0000    16.0000     4.0000     6.0000    10.0000    -2.0000     2.0025   159.4167   -41.1662     2.0004    37.9500     4.9952     4.9978     5.0000     5.000
     29     1.0000     0.0000     1.0000    23.0001    14.7000     66.567     18.000 250141.000     60.000    41.7108   -20.0773   -25.3629   120.0962    -0.1480    -3.0001   -56.7188   125.8989    20.4752    -0.9992     0.0015    14.0000     4.0000     4.0000     2.0000    16.0000     4.0000     6.0000    10.0000    -2.0000     2.0025   159.4167   -41.1662     2.0004    37.7001     4.9984     4.9987     5.0000     5.000
     30     1.0001     0.0000     1.0000    22.7506    14.7000     67.191     19.000 250141.000     60.000    41.8497   -20.0773   -25.4486   120.0962    -0.1480    -3.0001   -56.5140   125.3933    20.8368    -0.9992     0.0015    14.0000     4.0000     4.0000     2.0000    16.0000     4.0000     6.0000    10.0000    -2.0000     2.0025   159.4167   -41.1662     2.0006    37.4506     4.9950     4.9988     5.0000     5.000
     31     1.0000     0.0000     1.0000    22.5000    14.7000     67.875     16.000 250141.000     60.000    41.9902   -20.0773   -25.5356   120.0962    -0.1480    -3.0001   -56.3086   124.8937    21.1886    -0.9992     0.0015    14.0000     4.0000     4.0000     2.0000    16.0000     4.0000     6.0000    10.0000    -2.0000     2.0025   159.4167   -41.1662     2.0005    37.2000     4.9955     5.0013     5.0000     5.000
     32     1.0000     0.0000     1.0000    22.2501    14.7000     68.607     16.000 250141.000     60.000    42.1320   -20.0773   -25.6233   120.0962    -0.1480    -3.0001   -56.1026   124.3996    21.5351    -0.9992     0.0015    14.0000     4.0000     4.0000     2.0000    16.0000     4.0000     6.0000    10.0000    -2.0000     2.0025   159.4167   -41.1662     2.0004    36.9501     4.9987     5.0002     5.0000     5.000
     33     1.0000     0.0000     1.0000    21.9999    14.7000     69.070     28.000 250141.000     60.000    42.2752   -20.0773   -25.7120   120.0962    -0.1480    -3.0001   -55.8961   123.9110    21.8794    -0.9992     0.0015    14.0000     4.0000     4.0000     2.0000    16.0000     4.0000     6.0000    10.0000    -2.0000     2.0025   159.4167   -41.1662     2.0004    36.6999     5.0069     5.0028     5.0000     5.000
     34     1.0000     0.0000     1.0000    21.7500    14.7000     69.599     17.000 250141.000     60.000    42.4200   -20.0773   -25.8015   120.0962    -0.1480    -3.0001   -55.6890   123.4279    22.2207    -0.9992     0.0015    14.0000     4.0000     4.0000     2.0000    16.0000     4.0000     6.0000    10.0000    -2.0000     2.0025   159.4167   -41.1662     2.0005    36.4500     4.9936     4.9994     5.0000     5.000
     35     1.0000     0.0000     1.0000    21.4999    14.7000     69.458     20.000 250141.000     60.000    42.5662   -20.0773   -25.8920   120.0962    -0.1480    -3.0001   -55.4813   122.9493    22.5546    -0.9992     0.0015    14.0000     4.0000     4.0000     2.0000    16.0000     4.0000     6.0000    10.0000    -2.0000     2.0025   159.4167   -41.1662     2.0005    36.1999     5.0021     4.9997     5.0000     5.000
     36     1.0000     0.0000     1.0000    21.2499    14.7000     69.881      8.000 250141.000     60.000    42.7139   -20.0773   -25.9835   120.0962    -0.1480    -3.0001   -55.2730   122.4751    22.8853    -0.9992     0.0015    14.0000     4.0000     4.0000     2.0000    16.0000     4.0000     6.0000    10.0000    -2.0000     2.0025   159.4167   -41.1662     2.0005    35.9499     5.0056     5.0004     5.0000     5.000
     37     1.0000     0.0000     1.0000    20.9994    14.7000     69.831     17.000 250141.000     60.000    42.8632   -20.0773   -26.0761   120.0962    -0.1480    -3.0001   -55.0642   122.0050    23.2138    -0.9992     0.0015    14.0000     4.0000     4.0000     2.0000    16.0000     4.0000     6.0000    10.0000    -2.0000     2.0025   159.4167   -41.1662     2.0005    35.6993     5.0030     4.9978     5.0000     5.000
     38     1.0000     0.0000     1.0000    20.7501    14.7000     69.973     13.000 250141.000     60.000    43.0141   -20.0773   -26.1692   120.0962    -0.1480    -3.0001   -54.8546   121.5392    23.5362    -0.9992     0.0015    14.0000     4.0000     4.0000     2.0000    16.0000     4.0000     6.0000    10.0000    -2.0000     2.0025   159.4167   -41.1662     2.0005    35.4501     4.9940     5.0017     5.0000     5.000
     39     1.0000     0.0000     1.0000    20.4999    14.7000     70.034     15.000 250141.000     60.000    43.1666   -20.0773   -26.2637   120.0962    -0.1480    -3.0001   -54.6446   121.0775    23.8571    -0.9992     0.0015    14.0000     4.0000     4.0000     2.0000    16.0000     4.0000     6.0000    10.0000    -2.0005     2.0025   159.4167   -41.1662     2.0005    35.1999     5.0045     5.0003     5.0000     5.000
     40     1.0000     0.0000     1.0000    20.2500    14.7000     70.328     10.000 250141.000     60.000    43.3207   -20.0773   -26.3591   120.0962    -0.1480    -3.0001   -54.4338   120.6190    24.1733    -0.9992     0.0015    14.0000     4.0000     4.0000     2.0000    16.0000     4.0000     6.0000    10.0000    -2.0005     2.0025   159.4167   -41.1662     2.0005    34.9500     5.0018     5.0005     5.0000     5.000
     41     1.0000     0.0000     1.0000    19.9999    14.7000     70.958     17.000 250141.000     60.000    43.4765   -20.0773   -26.4557   120.0962    -0.1480    -3.0001   -54.2224   120.1641    24.4861    -0.9992     0.0015    14.0000     4.0000     4.0000     2.0000    16.0000     4.0000     6.0000    10.0000    -2.0005     2.0025   159.4167   -41.1662     2.0004    34.6999     5.0023     5.0014     5.0000     5.000
     42     1.0000     0.0000     1.0000    19.7508    14.7000     71.477     15.000 250141.000     60.000    43.6339   -20.0773   -26.5529   120.0962    -0.1480    -3.0001   -54.0105   119.7127    24.7973    -0.9992     0.0015    14.0000     4.0000     4.0000     2.0000    16.0000     4.0000     6.0000    10.0000    -2.0005     2.0025   159.4167   -41.1662     2.0005    34.4508     4.9938     4.9947     5.0000     5.000
     43     1.0000     0.0000     1.0000    19.4999    14.7000     71.720     19.000 250141.000     60.000    43.7931   -20.0773   -26.6519   120.0962    -0.1480    -3.0001   -53.7978   119.2641    25.1042    -0.9992     0.0015    14.0000     4.0000     4.0000     2.0000    16.0000     4.0000     6.0000    10.0000    -2.0005     2.0025   159.4167   -41.1662     2.0005    34.1998     4.9969     5.0029     5.0000     5.000
     44     1.0000     0.0000     1.0000    19.2497    14.7000     72.066     12.000 250141.000     60.000    43.9541   -20.0773   -26.7517   120.0962    -0.1480    -3.0001   -53.5845   118.8188    25.4097    -0.9992     0.0015    14.0000     4.0000     4.0000     2.0000    16.0000     4.0000     6.0000    10.0000    -2.0005     2.0025   159.4167   -41.1662     2.0005    33.9497     4.9977     5.0008     5.0000     5.000
     45     0.9999     0.0000     1.0000    18.9997    14.7000     73.264     15.000 250141.000     60.000    44.1168   -20.0773   -26.8527   120.0962    -0.1480    -3.0001   -53.3706   118.3756    25.7093    -0.9992     0.0015    14.0000     4.0000     4.0000     2.0000    16.0000     4.0000     6.0000    10.0000    -2.0005     2.0025   159.4167   -41.1662     2.0004    33.6996     5.0068     5.0016     5.0000     5.000
     46     1.0000     0.0000     1.0000    18.7504    14.7000     73.497      8.000 250141.000     60.000    44.2813   -20.0773   -26.9544   120.0962    -0.1480    -3.0001   -53.1560   117.9359    26.0111    -0.9992     0.0015    14.0000     4.0000     4.0000     2.0000    16.0000     4.0000     6.0000    10.0000    -2.0005     2.0025   159.4167   -41.1662     2.0005    33.4504     5.0031     4.9985     5.0000     5.000
     47     1.0000     0.0000     1.0000    18.5004    14.7000     74.185     19.000 250141.000     60.000    44.4478   -20.0773   -27.0576   120.0962    -0.1480    -3.0001   -52.9407   117.4984    26.3049    -0.9992     0.0015    14.0000     4.0000     4.0000     2.0000    16.0000     4.0000     6.0000    10.0000    -2.0005     2.0025   159.4167   -41.1662     2.0004    33.2004     5.0058     5.0009     5.0000     5.000
     48     1.0000     0.0000     1.0000    18.2502    14.7000     74.269     13.000 250141.000     60.000    44.6161   -20.0773   -27.1621   120.0962    -0.1480    -3.0001   -52.7248   117.0631    26.6004    -0.9992     0.0015    14.0000     4.0000     4.0000     2.0000    16.0000     4.0000     6.0000    10.0000    -2.0005     2.0025   159.4167   -41.1662     2.0005    32.9502     4.9965     5.0028     5.0000     5.000
     49     0.9999     0.0000     1.0000    18.0000    14.7000     74.909     14.000 250141.000     60.000    44.7863   -20.0773   -27.2678   120.0962    -0.1480    -3.0001   -52.5081   116.6301    26.8898    -0.9992     0.0015    14.0000     4.0000     4.0000     2.0000    16.0000     4.0000     6.0000    10.0000    -2.0005     2.0025   159.4167   -41.1662     2.0004    32.7000     5.0039     5.0033     5.0000     5.000
     50     1.0000     0.0000     1.0000    17.7495    14.7000     75.312     13.000 250141.000     60.000    44.9585   -20.0773   -27.3749   120.0962    -0.1480    -3.0001   -52.2908   116.1991    27.1813    -0.9992     0.0015    14.0000     4.0000     4.0000     2.0000    16.0000     4.0000     6.0000    10.0000    -2.0005     2.0025   159.4167   -41.1662     2.0005    32.4495     5.0019     5.0010     5.0000     5.000
     51     1.0000     0.0000     1.0000    17.5004    14.7000     75.407     13.000 250141.000     60.000    45.1326   -20.0773   -27.4826   120.0962    -0.1480    -3.0001   -52.0728   115.7704    27.4679    -0.9992     0.0015    14.0000     4.0000     4.0000     2.0000    16.0000     4.0000     6.0000    10.0000    -2.0005     2.0025   159.4167   -41.1662     2.0005    32.2004     4.9973     4.9978     5.0000     5.000
     52     1.0000     0.0000     1.0000    17.2498    14.7000     76.430     17.000 250141.000     60.000    45.3089   -20.0773   -27.5923   120.0962    -0.1480    -3.0001   -51.8540   115.3436    27.7526    -0.9992     0.0015    14.0000     4.0000     4.0000     2.0000    16.0000     4.0000     6.0000    10.0000    -2.0005     2.0025   159.4167   -41.1662     2.0005    31.9498     4.9978     5.0009     5.0000     5.000
     53     1.0000     0.0000     1.0000    17.0000    14.7000     76.763     16.000 250141.000     60.000    45.4872   -20.0773   -27.7030   120.0962    -0.1480    -3.0001   -51.6345   114.9184    28.0372    -0.9992     0.0015    14.0000     4.0000     4.0000     2.0000    16.0000     4.0000     6.0000    10.0000    -2.0005     2.0025   159.4167   -41.1662     2.0006    31.6999     5.0021     5.0008     5.0000     5.000
     54     1.0000     0.0000     1.0000    16.7506    14.7000     77.046     22.000 250141.000     60.000    45.6676   -20.0773   -27.8148   120.0962    -0.1480    -3.0001   -51.4143   114.4950    28.3144    -0.9992     0.0015    14.0000     4.0000     4.0000     2.0000    16.0000     4.0000     6.0000    10.0000    -2.0005     2.0025   159.4167   -41.1662     2.0004    31.4506     5.0063     5.0016     5.0000     5.000
     55     1.0000     0.0000     1.0000    16.4998    14.7000     77.006     11.000 250141.000     60.000    45.8503   -20.0773   -27.9287   120.0962    -0.1480    -3.0001   -51.1934   114.0729    28.5945    -0.9992     0.0015    14.0000     4.0000     4.0000     2.0000    16.0000     4.0000     6.0000    10.0000    -2.0005     2.0025   159.4167   -41.1662     2.0005    31.1998     4.9941     4.9987     5.0000     5.000
     56     1.0000     0.0000     1.0000    16.2499    14.7000     76.918     26.000 250141.000     60.000    46.0351   -20.0773   -28.0435   120.0962    -0.1480    -3.0001   -50.9717   113.6526    28.8719    -0.9992     0.0015    14.0000     4.0000     4.0000     2.0000    16.0000     4.0000     6.0000    10.0000    -2.0005     2.0025   159.4167   -41.1662     2.0005    30.9499     5.0000     5.0004     5.0000     5.000
     57     1.0000     0.0000     1.0000    16.0002    14.7000     77.047     18.000 250141.000     60.000    46.2221   -20.0773   -28.1596   120.0962    -0.1480    -3.0001   -50.7492   113.2336    29.1459    -0.9992     0.0015    14.0000     4.0000     4.0000     2.0000    16.0000     4.0000     6.0000    10.0000    -2.0005     2.0025   159.4167   -41.1662     2.0005    30.7002     5.0051     4.9996     5.0000     5.000
     58     1.0000     0.0000     1.0000    15.7499    14.7000     77.607     16.000 250141.000     60.000    46.4115   -20.0773   -28.2776   120.0962    -0.1480    -3.0001   -50.5260   112.8156    29.4187    -0.9992     0.0015    14.0000     4.0000     4.0000     2.0000    16.0000     4.0000     6.0000    10.0000    -2.0005     2.0025   159.4167   -41.1662     2.0005    30.4499     5.0072     4.9954     5.0000     5.000
     59     1.0000     0.0000     1.0000    15.5002    14.7000     78.159     21.000 250141.000     60.000    46.6032   -20.0773   -28.3966   120.0962    -0.1480    -3.0001   -50.3021   112.3995    29.6894    -0.9992     0.0015    14.0000     4.0000     4.0000     2.0000    16.0000     4.0000     6.0000    10.0000    -2.0005     2.0025   159.4167   -41.1662     2.0005    30.2002     5.0039     4.9988     5.0000     5.000
     60     1.0000     0.0000     1.0000    15.2500    14.7000     78.691     17.000 250141.000     60.000    46.7972   -20.0773   -28.5175   120.0962    -0.1480    -3.0001   -50.0773   111.9840    29.9597    -0.9992     0.0015    14.0000     4.0000     4.0000     2.0000    16.0000     4.0000     6.0000    10.0000    -2.0005     2.0025   159.4167   -41.1662     2.0005    29.9500     5.0054     4.9989     5.0000     5.000
     61     1.0000     0.0000     1.0000    14.9996    14.7000     78.683     23.000 250141.000     60.000    46.9938   -20.0773   -28.6400   120.0962    -0.1480    -3.0001   -49.8518   111.5695    30.2294    -0.9992     0.0015    14.0000     4.0000     4.0000     2.0000    16.0000     4.0000     6.0000    10.0000    -2.0005     2.0025   159.4167   -41.1662     2.0005    29.6996     4.9932     5.0000     5.0000     5.000
     62     1.0000     0.0000     1.0000    14.7501    14.7000     78.452     28.000 250141.000     60.000    47.1929   -20.0773   -28.7637   120.0962    -0.1480    -3.0001   -49.6254   111.1559    30.4925    -0.9992     0.0015    14.0000     4.0000     4.0000     2.0000    16.0000     4.0000     6.0000    10.0000    -2.0005     2.0025   159.4167   -41.1662     2.0004    29.4501     4.9970     5.0005     5.0000     5.000
     63     1.0000     0.0000     1.0000    14.5001    14.7000     78.280     19.000 250141.000     60.000    47.3944   -20.0773   -28.8892   120.0962    -0.1480    -3.0001   -49.3982   110.7439    30.7585    -0.9992     0.0015    14.0000     4.0000     4.0000     2.0000    16.0000     4.0000     6.0000    10.0000    -2.0005     2.0025   159.4167   -41.1662     2.0005    29.2001     4.9993     5.0025     5.0000     5.000
     64     1.0000     0.0000     1.0000    14.2497    14.7000     76.990     32.000 250141.000     60.000    47.5986   -20.0773   -29.0166   120.0962    -0.1480    -3.0001   -49.1702   110.3317    31.0229    -0.9992     0.0015    14.0000     4.0000     4.0000     2.0000    16.0000     4.0000     6.0000    10.0000    -2.0005     2.0025   159.4167   -41.1662     2.0005    28.9497     4.9968     5.0027     5.0000     5.000
     65     1.0000     0.0000     1.0000    14.0001    14.7000     75.590     21.000 250141.000     60.000    47.8055   -20.0773   -29.1453   120.0962    -0.1480    -3.0001   -48.9414   109.9207    31.2819    -0.9992     0.0015    14.0000     4.0000     4.0000     2.0000    16.0000     4.0000     6.0000    10.0000    -2.0005     2.0025   159.4167   -41.1662     2.0004    28.7001     5.0015     5.0013     5.0000     5.000
     66     1.0000     0.0000     1.0000    13.7499    14.7000     74.423     23.000 250141.000     60.000    48.0151   -20.0773   -29.2760   120.0962    -0.1480    -3.0001   -48.7117   109.5104    31.5422    -0.9992     0.0015    14.0000     4.0000     4.0000     2.0000    16.0000     4.0000     6.0000    10.0000    -2.0005     2.0025   159.4167   -41.1662     2.0004    28.4499     4.9930     4.9974     5.0000     5.000
     67     1.0000     0.0000     1.0000    13.4999    14.7000     74.027     33.000 250141.000     60.000    48.2274   -20.0773   -29.4084   120.0962    -0.1480    -3.0001   -48.4811   109.1004    31.8022    -0.9992     0.0015    14.0000     4.0000     4.0000     2.0000    16.0000     4.0000     6.0000    10.0000    -2.0005     2.0025   159.4167   -41.1662     2.0005    28.1999     5.0042     5.0013     5.0000     5.000
     68     1.0000     0.0000     1.0000    13.2502    14.7000     73.565     21.000 250141.000     60.000    48.4427   -20.0773   -29.5425   120.0962    -0.1480    -3.0001   -48.2497   108.6911    32.0589    -0.9992     0.0015    14.0000     4.0000     4.0000     2.0000    16.0000     4.0000     6.0000    10.0000    -2.0005     2.0025   159.4167   -41.1662     2.0005    27.9501     5.0065     4.9967     5.0000     5.000
     69     1.0000     0.0000     1.0000    13.0002    14.7000     74.696     24.000 250141.000     60.000    48.6608   -20.0773   -29.6785   120.0962    -0.1480    -3.0001   -48.0174   108.2824    32.3138    -0.9992     0.0015    14.0000     4.0000     4.0000     2.0000    16.0000     4.0000     6.0000    10.0000    -2.0005     2.0025   159.4167   -41.1662     2.0005    27.7002     4.9992     4.9961     5.0000     5.000
     70     1.0000     0.0000     1.0000    12.7500    14.7000     75.724     31.000 250141.000     60.000    48.8819   -20.0773   -29.8166   120.0962    -0.1480    -3.0001   -47.7842   107.8738    32.5697    -0.9992     0.0015    14.0000     4.0000     4.0000     2.0000    16.0000     4.0000     6.0000    10.0000    -2.0005     2.0025   159.4167   -41.1662     2.0005    27.4500     5.0023     4.9961     5.0000     5.000
     71     1.0001     0.0000     1.0000    12.4998    14.7000     77.315     34.000 250141.000     60.000    49.1060   -20.0773   -29.9567   120.0962    -0.1480    -3.0001   -47.5501   107.4651    32.8250    -0.9992     0.0015    14.0000     4.0000     4.0000     2.0000    16.0000     4.0000     6.0000    10.0000    -2.0005     2.0025   159.4167   -41.1662     2.0006    27.1998     5.0070     5.0059     5.0000     5.000
     72     1.0000     0.0000     1.0000    12.2500    14.7000     78.920     30.000 250141.000     60.000    49.3332   -20.0773   -30.0984   120.0962    -0.1480    -3.0001   -47.3151   107.0572    33.0736    -0.9992     0.0015    14.0000     4.0000     4.0000     2.0000    16.0000     4.0000     6.0000    10.0000    -2.0005     2.0025   159.4167   -41.1662     2.0005    26.9499     5.0005     4.9962     5.0000     5.000
     73     1.0000     0.0000     1.0000    12.0001    14.7000     79.280     23.000 250141.000     60.000    49.5636   -20.0773   -30.2423   120.0962    -0.1480    -3.0001   -47.0791   106.6491    33.3244    -0.9992     0.0015    14.0000     4.0000     4.0000     2.0000    16.0000     4.0000     6.0000    10.0000    -2.0005     2.0025   159.4167   -41.1662     2.0005    26.7001     5.0008     4.9995     5.0000     5.000
     74     1.0000     0.0000     1.0000    11.7502    14.7000     79.723     29.000 250141.000     60.000    49.7973   -20.0773   -30.3882   120.0962    -0.1480    -3.0001   -46.8422   106.2409    33.5748    -0.9992     0.0015    14.0000     4.0000     4.0000     2.0000    16.0000     4.0000     6.0000    10.0000    -2.0005     2.0025   159.4167   -41.1662     2.0005    26.4502     5.0058     5.0022     5.0000     5.000
     75     1.0000     0.0000     1.0000    11.5003    14.7000     79.103     40.000 250141.000     60.000    50.0343   -20.0773   -30.5363   120.0962    -0.1480    -3.0001   -46.6044   105.8334    33.8233    -0.9992     0.0015    14.0000     4.0000     4.0000     2.0000    16.0000     4.0000     6.0000    10.0000    -2.0005     2.0025   159.4167   -41.1662     2.0005    26.2003     5.0042     5.0003     5.0000     5.000
     76     1.0000     0.0000     1.0000    11.2499    14.7000     78.706     36.000 250141.000     60.000    50.2748   -20.0773   -30.6869   120.0962    -0.1480    -3.0001   -46.3655   105.4250    34.0691    -0.9992     0.0015    14.0000     4.0000     4.0000     2.0000    16.0000     4.0000     6.0000    10.0000    -2.0005     2.0025   159.4167   -41.1662     2.0005    25.9499     4.9966     5.0029     5.0000     5.000
     77     1.0000     0.0000     1.0000    11.0001    14.7000     78.075     40.000 250141.000     60.000    50.5187   -20.0773   -30.8394   120.0962    -0.1480    -3.0001   -46.1257   105.0169    34.3138    -0.9992     0.0015    14.0000     4.0000     4.0000     2.0000    16.0000     4.0000     6.0000    10.0000    -2.0005     2.0025   159.4167   -41.1662     2.0004    25.7001     4.9992     5.0019     5.0000     5.000
     78     1.0000     0.0000     1.0000    10.7499    14.7000     77.885     27.000 250141.000     60.000    50.7662   -20.0773   -30.9944   120.0962    -0.1480    -3.0001   -45.8849   104.6088    34.5603    -0.9992     0.0015    14.0000     4.0000     4.0000     2.0000    16.0000     4.0000     6.0000    10.0000    -2.0005     2.0025   159.4167   -41.1662     2.0005    25.4499     5.0061     4.9964     5.0000     5.000
     79     1.0000     0.0000     1.0000    10.4998    14.7000     77.205     36.000 250141.000     60.000    51.0174   -20.0773   -31.1517   120.0962    -0.1480    -3.0001   -45.6430   104.1996    34.8044    -0.9992     0.0015    14.0000     4.0000     4.0000     2.0000    16.0000     4.0000     6.0000    10.0000    -2.0005     2.0025   159.4167   -41.1662     2.0005    25.1998     5.0042     4.9985     5.0000     5.000
     80     1.0000     0.0000     1.0000    10.2501    14.7000     77.691     48.000 250141.000     60.000    51.2724   -20.0773   -31.3112   120.0962    -0.1480    -3.0001   -45.4002   103.7906    35.0475    -0.9992     0.0015    14.0000     4.0000     4.0000     2.0000    16.0000     4.0000     6.0000    10.0000    -2.0005     2.0025   159.4167   -41.1662     2.0005    24.9501     4.9990     4.9993     5.0000     5.000
     81     1.0000     0.0000     1.0000    10.0005    14.7000     78.808     49.000 250141.000     60.000    51.5312   -20.0773   -31.4731   120.0962    -0.1480    -3.0001   -45.1562   103.3813    35.2878    -0.9992     0.0015    14.0000     4.0000     4.0000     2.0000    16.0000     4.0000     6.0000    10.0000    -2.0005     2.0025   159.4167   -41.1662     2.0005    24.7005     4.9956     5.0003     5.0000     5.000
     82     1.0000     0.0000     1.0000     9.7499    14.7000     80.036     41.000 250141.000     60.000    51.7940   -20.0773   -31.6382   120.0962    -0.1480    -3.0001   -44.9112   102.9714    35.5266    -0.9992     0.0015    14.0000     4.0000     4.0000     2.0000    16.0000     4.0000     6.0000    10.0000    -2.0005     2.0025   159.4167   -41.1662     2.0004    24.4499     5.0003     5.0006     5.0000     5.000
     83     1.0000     0.0000     1.0000     9.4998    14.7000     81.733     39.000 250141.000     60.000    52.0609   -20.0773   -31.8055   120.0962    -0.1480    -3.0001   -44.6652   102.5607    35.7677    -0.9992     0.0015    14.0000     4.0000     4.0000     2.0000    16.0000     4.0000     6.0000    10.0000    -2.0005     2.0025   159.4167   -41.1662     2.0005    24.1998     4.9969     5.0002     5.0000     5.000
     84     1.0000     0.0000     1.0000     9.2502    14.7000     82.515     35.000 250141.000     60.000    52.3319   -20.0773   -31.9752   120.0962    -0.1480    -3.0001   -44.4180   102.1496    36.0071    -0.9992     0.0015    14.0000     4.0000     4.0000     2.0000    16.0000     4.0000     6.0000    10.0000    -2.0005     2.0025   159.4167   -41.1662     2.0005    23.9502     4.9971     5.0036     5.0000     5.000
     85     1.0000     0.0000     1.0001     8.9999    14.7000     82.065     41.000 250141.000     60.000    52.6071   -20.0773   -32.1482   120.0962    -0.1480    -3.0001   -44.1697   101.7378    36.2455    -0.9992     0.0015    14.0000     4.0000     4.0000     2.0000    16.0000     4.0000     6.0000    10.0000    -2.0005     2.0025   159.4167   -41.1662     2.0006    23.6999     5.0072     5.0006     5.0000     5.000
     86     1.0000     0.0000     1.0000     8.7500    14.7000     80.077     55.000 250141.000     60.000    52.8868   -20.0773   -32.3237   120.0962    -0.1480    -3.0001   -43.9203   101.3250    36.4792    -0.9992     0.0015    14.0000     4.0000     4.0000     2.0000    16.0000     4.0000     6.0000    10.0000    -2.0005     2.0025   159.4167   -41.1662     2.0005    23.4499     5.0046     4.9979     5.0000     5.000
     87     1.0000     0.0000     1.0000     8.4998    14.7000     77.118     52.000 250141.000     60.000    53.1710   -20.0773   -32.5023   120.0962    -0.1480    -3.0001   -43.6697   100.9116    36.7138    -0.9992     0.0015    14.0000     4.0000     4.0000     2.0000    16.0000     4.0000     6.0000    10.0000    -2.0005     2.0025   159.4167   -41.1662     2.0004    23.1998     4.9950     5.0028     5.0000     5.000
     88     1.0000     0.0000     1.0000     8.2503    14.7000     74.828     50.000 250141.000     60.000    53.4598   -20.0773   -32.6835   120.0962    -0.1480    -3.0001   -43.4180   100.4974    36.9494    -0.9992     0.0015    14.0000     4.0000     4.0000     2.0000    16.0000     4.0000     6.0000    10.0000    -2.0005     2.0025   159.4167   -41.1662     2.0005    22.9502     4.9965     5.0043     5.0000     5.000
     89     1.0000     0.0000     1.0000     7.9998    14.7000     72.737     60.000 250141.000     60.000    53.7534   -20.0773   -32.8684   120.0962    -0.1480    -3.0001   -43.1651   100.0814    37.1827    -0.9992     0.0015    14.0000     4.0000     4.0000     2.0000    16.0000     4.0000     6.0000    10.0000    -2.0005     2.0025   159.4167   -41.1662     2.0005    22.6998     4.9995     4.9974     5.0000     5.000
     90     1.0000     0.0000     1.0000     7.7500    14.7000     71.588     51.000 250141.000     60.000    54.0519   -20.0773   -33.0560   120.0962    -0.1480    -3.0001   -42.9109    99.6654    37.4154    -0.9992     0.0015    14.0000     4.0000     4.0000     2.0000    16.0000     4.0000     6.0000    10.0000    -2.0005     2.0025   159.4167   -41.1662     2.0005    22.4500     4.9954     4.9977     5.0000     5.000
     91     1.0000     0.0000     1.0001     7.5000    14.7000     71.263     52.000 250141.000     60.000    54.3554   -20.0773   -33.2470   120.0962    -0.1480    -3.0001   -42.6556    99.2477    37.6483    -0.9992     0.0015    14.0000     4.0000     4.0000     2.0000    16.0000     4.0000     6.0000    10.0000    -2.0005     2.0025   159.4167   -41.1662     2.0006    22.2000     5.0055     4.9989     5.0000     5.000
     92     1.0000     0.0000     1.0000     7.2499    14.7000     71.341     64.000 250141.000     60.000    54.6640   -20.0773   -33.4413   120.0962    -0.1480    -3.0001   -42.3989    98.8289    37.8748    -0.9992     0.0015    14.0000     4.0000     4.0000     2.0000    16.0000     4.0000     6.0000    10.0000    -2.0005     2.0025   159.4167   -41.1662     2.0004    21.9499     5.0035     5.0009     5.0000     5.000
     93     1.0000     0.0000     1.0000     7.0001    14.7000     71.848     70.000 250141.000     60.000    54.9780   -20.0773   -33.6390   120.0962    -0.1480    -3.0001   -42.1410    98.4087    38.1044    -0.9992     0.0015    14.0000     4.0000     4.0000     2.0000    16.0000     4.0000     6.0000    10.0000    -2.0005     2.0025   159.4167   -41.1662     2.0004    21.7001     5.0055     4.9993     5.0000     5.000
     94     1.0000     0.0000     1.0000     6.7499    14.7000     72.247     60.000 250141.000     60.000    55.2975   -20.0773   -33.8404   120.0962    -0.1480    -3.0001   -41.8818    97.9868    38.3345    -0.9992     0.0015    14.0000     4.0000     4.0000     2.0000    16.0000     4.0000     6.0000    10.0000    -2.0005     2.0025   159.4167   -41.1662     2.0005    21.4499     4.9948     5.0001     5.0000     5.000
     95     1.0000     0.0000     1.0000     6.5001    14.7000     72.763     54.000 250141.000     60.000    55.6225   -20.0773   -34.0453   120.0962    -0.1480    -3.0001   -41.6214    97.5643    38.5616    -0.9992     0.0015    14.0000     4.0000     4.0000     2.0000    16.0000     4.0000     6.0000    10.0000    -2.0005     2.0025   159.4167   -41.1662     2.0005    21.2001     4.9963     4.9996     5.0000     5.000
     96     1.0000     0.0000     1.0000     6.2501    14.7000     73.971     62.000 250141.000     60.000    55.9535   -20.0773   -34.2541   120.0962    -0.1480    -3.0001   -41.3595    97.1394    38.7884    -0.9992     0.0015    14.0000     4.0000     4.0000     2.0000    16.0000     4.0000     6.0000    10.0000    -2.0005     2.0025   159.4167   -41.1662     2.0005    20.9501     5.0046     5.0039     5.0000     5.000
     97     1.0000     0.0000     1.0000     5.9998    14.7000     74.986     67.000 250141.000     60.000    56.2903   -20.0773   -34.4669   120.0962    -0.1480    -3.0001   -41.0963    96.7136    39.0146    -0.9992     0.0015    14.0000     4.0000     4.0000     2.0000    16.0000     4.0000     6.0000    10.0000    -2.0005     2.0025   159.4167   -41.1662     2.0005    20.6998     5.0006     5.0003     5.0000     5.000
     98     1.0000     0.0000     1.0001     5.7500    14.7000     76.834     64.000 250141.000     60.000    56.6333   -20.0773   -34.6835   120.0962    -0.1480    -3.0001   -40.8317    96.2850    39.2416    -0.9992     0.0015    14.0000     4.0000     4.0000     2.0000    16.0000     4.0000     6.0000    10.0000    -2.0005     2.0025   159.4167   -41.1662     2.0006    20.4500     5.0007     5.0001     5.0000     5.000
     99     1.0000     0.0000     1.0000     5.5002    14.7000     78.319     63.000 250141.000     60.000    56.9827   -20.0773   -34.9041   120.0962    -0.1480    -3.0001   -40.5656    95.8558    39.4624    -0.9992     0.0015    14.0000     4.0000     4.0000     2.0000    16.0000     4.0000     6.0000    10.0000    -2.0005     2.0025   159.4167   -41.1662     2.0005    20.2002     4.9937     4.9983     5.0000     5.000
    100     1.0000     0.0000     1.0000     5.2498    14.7000     79.520     79.000 250141.000     60.000    57.3387   -20.0773   -35.1295   120.0962    -0.1480    -3.0001   -40.2982    95.4240    39.6847    -0.9992     0.0015    14.0000     4.0000     4.0000     2.0000    16.0000     4.0000     6.0000    10.0000    -2.0005     2.0025   159.4167   -41.1662     2.0004    19.9498     4.9957     5.0021     5.0000     5.000
    101     1.0000     0.0000     1.0000     5.0000    14.7000     80.415     59.000 250141.000     60.000    57.7013   -20.0773   -35.3588   120.0962    -0.1480    -3.0001   -40.0292    94.9903    39.9061    -0.9992     0.0015    14.0000     4.0000     4.0000     2.0000    16.0000     4.0000     6.0000    10.0000    -2.0005     2.0025   159.4167   -41.1662     2.0004    19.7000     5.0087     5.0024     5.0000     5.000
# Sum of Counts = 2722
# Center of Mass = 13.692525+/-0.396057
# Full Width Half-Maximum = 14.423074+/-0.261866
# 11:06:19 PM  10/25/2024   scan completed.
