# scan = 87
# date = 10/25/2024
# time = 11:59:54 PM
# proposal = 34735
# experiment = Magnons and paramagnon coupling in MnTe
# experiment_number = 823
# command = scan h 1.0 k 0.0 l 1.0 e 30.0 2.0 0.25 ef 14.7 preset mcu 120
# builtin_command = scan h 1.0 k 0.0 l 1.0 e 30.0 2.0 0.25 ef 14.7 preset mcu 120
# users = Benjamin Frandsen, Songxue Chi, George Yumnam, Huibo Cao, Michael Manley, Raphael Hermann, Eleanor Clements
# local_contact = Eleanor Clements
# scan_title = Scans H0L = (1.0, 0, 1.0) to (1.5, 0, 0.5) - Transverse at (1.0, 0.0, 1.0) 
# monochromator = PG002
# analyzer = Pg002
# sense = -+-
# collimation = 48-40-40-120
# samplename = MnTe
# sampletype = crystal
# samplemosaic = 30.000000
# latticeconstants = 4.113532,4.113532,6.656209,90.000000,90.000000,120.000000
# ubmatrix = 0.008885,0.000200,-0.150137,0.280567,0.140284,0.004756,-0.000155,-0.243141,0.002621
# mode = 0
# plane_normal = 0.017452,-0.000000,0.999848
# ubconf = UB25Oct2024_84509PM.ini
# preset_type = normal 
# preset_channel = mcu
# preset_value = 120.000000
# def_x = e
# def_y = detector
# col_headers = 
#   Pt.          h          k          l          e         ef       time   detector    monitor        mcu focal_length         m1         m2   mcrystal       marc     mtrans     mfocus         s1         s2        sgl        sgu        bbb        bbl        bbr        bbt        bab        bal        bar        bat        stl        stu         a1         a2          q         ei        vti     sample       temp     temp_2
      1     1.0001     0.0000     1.0001    30.0027    14.7000    147.950     26.000 500281.000    120.000    38.3059   -20.0773   -23.2615   120.0962    -0.1480    -3.0001   -62.2448   147.6289     4.5254    -0.9995     0.0015    14.0000     4.0000     4.0000     2.0000    16.0000     4.0000     6.0000    10.0000    -2.0005     2.0025   159.4167   -41.1662     2.0006    44.7026     4.9958     4.9994     5.0000     5.000
      2     1.0000     0.0000     1.0000    29.7497    14.7000    145.974     15.000 500281.000    120.000    38.4134   -20.0773   -23.3285   120.0962    -0.1480    -3.0001   -62.0538   145.8585     5.8512    -0.9995     0.0015    14.0000     4.0000     4.0000     2.0000    16.0000     4.0000     6.0000    10.0000    -2.0005     2.0025   159.4167   -41.1662     2.0005    44.4497     4.9979     5.0018     5.0000     5.000
      3     1.0000     0.0000     1.0000    29.5004    14.7000    144.606     28.000 500281.000    120.000    38.5219   -20.0773   -23.3952   120.0962    -0.1480    -3.0001   -61.8623   144.4158     6.9288    -0.9995     0.0015    14.0000     4.0000     4.0000     2.0000    16.0000     4.0000     6.0000    10.0000    -2.0005     2.0025   159.4167   -41.1662     2.0005    44.2004     4.9982     4.9964     5.0000     5.000
      4     1.0000     0.0000     0.9999    29.2490    14.7000    143.369     18.000 500281.000    120.000    38.6313   -20.0773   -23.4629   120.0962    -0.1480    -3.0001   -61.6704   143.1639     7.8632    -0.9995     0.0015    14.0000     4.0000     4.0000     2.0000    16.0000     4.0000     6.0000    10.0000    -2.0005     2.0025   159.4167   -41.1662     2.0004    43.9490     5.0003     4.9934     5.0000     5.000
      5     1.0000     0.0000     1.0000    29.0002    14.7000    143.029     15.000 500281.000    120.000    38.7417   -20.0773   -23.5306   120.0962    -0.1480    -3.0001   -61.4781   142.0410     8.6979    -0.9995     0.0015    14.0000     4.0000     4.0000     2.0000    16.0000     4.0000     6.0000    10.0000    -2.0005     2.0025   159.4167   -41.1662     2.0004    43.7002     4.9988     5.0013     5.0000     5.000
      6     1.0000     0.0000     1.0000    28.7500    14.7000    142.515     18.000 500281.000    120.000    38.8530   -20.0773   -23.5992   120.0962    -0.1480    -3.0001   -61.2854   141.0131     9.4634    -0.9995     0.0015    14.0000     4.0000     4.0000     2.0000    16.0000     4.0000     6.0000    10.0000    -2.0005     2.0025   159.4167   -41.1662     2.0005    43.4500     4.9933     5.0013     5.0000     5.000
      7     1.0000     0.0000     1.0000    28.4999    14.7000    141.940     23.000 500281.000    120.000    38.9652   -20.0773   -23.6684   120.0962    -0.1480    -3.0001   -61.0922   140.0576    10.1740    -0.9995     0.0015    14.0000     4.0000     4.0000     2.0000    16.0000     4.0000     6.0000    10.0000    -2.0005     2.0025   159.4167   -41.1662     2.0005    43.1999     4.9988     4.9990     5.0000     5.000
      8     1.0000     0.0000     1.0000    28.2505    14.7000    141.684     25.000 500281.000    120.000    39.0785   -20.0773   -23.7380   120.0962    -0.1480    -3.0001   -60.8985   139.1608    10.8382    -0.9995     0.0015    14.0000     4.0000     4.0000     2.0000    16.0000     4.0000     6.0000    10.0000    -2.0005     2.0025   159.4167   -41.1662     2.0005    42.9505     4.9987     4.9979     5.0000     5.000
      9     1.0000     0.0000     1.0000    27.9998    14.7000    141.114     22.000 500281.000    120.000    39.1927   -20.0773   -23.8086   120.0962    -0.1480    -3.0001   -60.7044   138.3129    11.4650    -0.9995     0.0015    14.0000     4.0000     4.0000     2.0000    16.0000     4.0000     6.0000    10.0000    -2.0005     2.0025   159.4167   -41.1662     2.0005    42.6998     5.0071     5.0026     5.0000     5.000
     10     1.0000     0.0000     1.0000    27.7496    14.7000    140.222     24.000 500281.000    120.000    39.3079   -20.0773   -23.8797   120.0962    -0.1480    -3.0001   -60.5098   137.5048    12.0612    -0.9995     0.0015    14.0000     4.0000     4.0000     2.0000    16.0000     4.0000     6.0000    10.0000    -2.0005     2.0025   159.4167   -41.1662     2.0004    42.4496     4.9967     5.0003     5.0000     5.000
     11     1.0000     0.0000     1.0000    27.4999    14.7000    139.720     31.000 500281.000    120.000    39.4242   -20.0773   -23.9513   120.0962    -0.1480    -3.0001   -60.3147   136.7318    12.6319    -0.9995     0.0015    14.0000     4.0000     4.0000     2.0000    16.0000     4.0000     6.0000    10.0000    -2.0005     2.0025   159.4167   -41.1662     2.0005    42.1999     5.0010     4.9979     5.0000     5.000
     12     1.0000     0.0000     1.0000    27.2502    14.7000    138.183     30.000 500281.000    120.000    39.5415   -20.0773   -24.0235   120.0962    -0.1480    -3.0001   -60.1192   135.9888    13.1788    -0.9995     0.0015    14.0000     4.0000     4.0000     2.0000    16.0000     4.0000     6.0000    10.0000    -2.0005     2.0025   159.4167   -41.1662     2.0005    41.9502     5.0044     4.9966     5.0000     5.000
     13     0.9999     0.0000     1.0000    26.9999    14.7000    137.146     23.000 500281.000    120.000    39.6598   -20.0773   -24.0966   120.0962    -0.1480    -3.0001   -59.9232   135.2724    13.7018    -0.9995     0.0015    14.0000     4.0000     4.0000     2.0000    16.0000     4.0000     6.0000    10.0000    -2.0005     2.0025   159.4167   -41.1662     2.0004    41.6999     4.9943     4.9989     5.0000     5.000
     14     1.0000     0.0000     1.0000    26.7502    14.7000    135.310     21.000 500281.000    120.000    39.7792   -20.0773   -24.1702   120.0962    -0.1480    -3.0001   -59.7267   134.5790    14.2140    -0.9995     0.0015    14.0000     4.0000     4.0000     2.0000    16.0000     4.0000     6.0000    10.0000    -2.0005     2.0025   159.4167   -41.1662     2.0005    41.4502     5.0059     4.9985     5.0000     5.000
     15     1.0000     0.0000     1.0000    26.5000    14.7000    133.725     29.000 500281.000    120.000    39.8998   -20.0773   -24.2446   120.0962    -0.1480    -3.0001   -59.5297   133.9069    14.7026    -0.9995     0.0015    14.0000     4.0000     4.0000     2.0000    16.0000     4.0000     6.0000    10.0000    -2.0005     2.0025   159.4167   -41.1662     2.0004    41.2000     5.0045     5.0004     5.0000     5.000
     16     1.0000     0.0000     1.0000    26.2505    14.7000    132.096     40.000 500281.000    120.000    40.0214   -20.0773   -24.3194   120.0962    -0.1480    -3.0001   -59.3323   133.2536    15.1815    -0.9995     0.0015    14.0000     4.0000     4.0000     2.0000    16.0000     4.0000     6.0000    10.0000    -2.0005     2.0025   159.4167   -41.1662     2.0005    40.9505     5.0041     4.9940     5.0000     5.000
     17     1.0000     0.0000     1.0000    25.9998    14.7000    130.935     28.000 500281.000    120.000    40.1441   -20.0773   -24.3954   120.0962    -0.1480    -3.0001   -59.1343   132.6174    15.6453    -0.9995     0.0015    14.0000     4.0000     4.0000     2.0000    16.0000     4.0000     6.0000    10.0000    -2.0005     2.0025   159.4167   -41.1662     2.0005    40.6998     5.0052     4.9975     5.0000     5.000
     18     1.0000     0.0000     1.0000    25.7501    14.7000    129.659     22.000 500281.000    120.000    40.2680   -20.0773   -24.4717   120.0962    -0.1480    -3.0001   -58.9359   131.9960    16.0949    -0.9995     0.0015    14.0000     4.0000     4.0000     2.0000    16.0000     4.0000     6.0000    10.0000    -2.0005     2.0025   159.4167   -41.1662     2.0004    40.4501     5.0034     5.0013     5.0000     5.000
     19     1.0000     0.0000     1.0000    25.5008    14.7000    129.116     39.000 500281.000    120.000    40.3930   -20.0773   -24.5487   120.0962    -0.1480    -3.0001   -58.7370   131.3897    16.5362    -0.9995     0.0015    14.0000     4.0000     4.0000     2.0000    16.0000     4.0000     6.0000    10.0000    -2.0005     2.0025   159.4167   -41.1662     2.0005    40.2008     5.0062     4.9985     5.0000     5.000
     20     1.0000     0.0000     1.0000    25.2494    14.7000    128.214     45.000 500281.000    120.000    40.5192   -20.0773   -24.6270   120.0962    -0.1480    -3.0001   -58.5375   130.7957    16.9666    -0.9995     0.0015    14.0000     4.0000     4.0000     2.0000    16.0000     4.0000     6.0000    10.0000    -2.0005     2.0025   159.4167   -41.1662     2.0004    39.9494     5.0004     4.9939     5.0000     5.000
     21     1.0000     0.0000     0.9999    24.9997    14.7000    127.727     33.000 500281.000    120.000    40.6465   -20.0773   -24.7055   120.0962    -0.1480    -3.0001   -58.3375   130.2142    17.3882    -0.9995     0.0015    14.0000     4.0000     4.0000     2.0000    16.0000     4.0000     6.0000    10.0000    -2.0005     2.0025   159.4167   -41.1662     2.0005    39.6997     4.9984     5.0003     5.0000     5.000
     22     1.0000     0.0000     1.0000    24.7503    14.7000    127.788     37.000 500281.000    120.000    40.7751   -20.0773   -24.7847   120.0962    -0.1480    -3.0001   -58.1370   129.6431    17.7988    -0.9995     0.0015    14.0000     4.0000     4.0000     2.0000    16.0000     4.0000     6.0000    10.0000    -2.0005     2.0025   159.4167   -41.1662     2.0005    39.4503     5.0060     4.9997     5.0000     5.000
     23     1.0000     0.0000     1.0000    24.5003    14.7000    127.899     49.000 500281.000    120.000    40.9049   -20.0773   -24.8649   120.0962    -0.1480    -3.0001   -57.9360   129.0829    18.2040    -0.9995     0.0015    14.0000     4.0000     4.0000     2.0000    16.0000     4.0000     6.0000    10.0000    -2.0005     2.0025   159.4167   -41.1662     2.0005    39.2003     5.0024     4.9977     5.0000     5.000
     24     1.0000     0.0000     1.0000    24.2504    14.7000    128.112     49.000 500281.000    120.000    41.0360   -20.0773   -24.9458   120.0962    -0.1480    -3.0001   -57.7345   128.5316    18.5985    -0.9995     0.0015    14.0000     4.0000     4.0000     2.0000    16.0000     4.0000     6.0000    10.0000    -2.0005     2.0025   159.4167   -41.1662     2.0005    38.9504     4.9937     4.9975     5.0000     5.000
     25     1.0000     0.0000     0.9999    23.9991    14.7000    128.692     44.000 500281.000    120.000    41.1683   -20.0773   -25.0280   120.0962    -0.1480    -3.0001   -57.5324   127.9898    18.9892    -0.9995     0.0015    14.0000     4.0000     4.0000     2.0000    16.0000     4.0000     6.0000    10.0000    -2.0005     2.0025   159.4167   -41.1662     2.0005    38.6991     5.0074     4.9987     5.0000     5.000
     26     1.0000     0.0000     1.0000    23.7505    14.7000    129.662     47.000 500281.000    120.000    41.3020   -20.0773   -25.1101   120.0962    -0.1480    -3.0001   -57.3298   127.4556    19.3689    -0.9995     0.0015    14.0000     4.0000     4.0000     2.0000    16.0000     4.0000     6.0000    10.0000    -2.0005     2.0025   159.4167   -41.1662     2.0005    38.4505     5.0033     5.0003     5.0000     5.000
     27     1.0000     0.0000     1.0000    23.4994    14.7000    130.483     44.000 500281.000    120.000    41.4369   -20.0773   -25.1938   120.0962    -0.1480    -3.0001   -57.1267   126.9299    19.7429    -0.9995     0.0015    14.0000     4.0000     4.0000     2.0000    16.0000     4.0000     6.0000    10.0000    -2.0005     2.0025   159.4167   -41.1662     2.0004    38.1994     5.0059     5.0015     5.0000     5.000
     28     1.0000     0.0000     1.0000    23.2502    14.7000    132.295     42.000 500281.000    120.000    41.5732   -20.0773   -25.2778   120.0962    -0.1480    -3.0001   -56.9230   126.4106    20.1120    -0.9995     0.0015    14.0000     4.0000     4.0000     2.0000    16.0000     4.0000     6.0000    10.0000    -2.0005     2.0025   159.4167   -41.1662     2.0005    37.9502     4.9962     5.0020     5.0000     5.000
     29     1.0000     0.0000     1.0000    23.0001    14.7000    133.530     32.000 500281.000    120.000    41.7108   -20.0773   -25.3629   120.0962    -0.1480    -3.0001   -56.7188   125.8991    20.4752    -0.9995     0.0015    14.0000     4.0000     4.0000     2.0000    16.0000     4.0000     6.0000    10.0000    -2.0005     2.0025   159.4167   -41.1662     2.0004    37.7001     5.0000     5.0050     5.0000     5.000
     30     1.0000     0.0000     1.0000    22.7507    14.7000    135.155     38.000 500281.000    120.000    41.8497   -20.0773   -25.4486   120.0962    -0.1480    -3.0001   -56.5140   125.3933    20.8362    -0.9995     0.0015    14.0000     4.0000     4.0000     2.0000    16.0000     4.0000     6.0000    10.0000    -2.0005     2.0025   159.4167   -41.1662     2.0006    37.4507     5.0041     4.9990     5.0000     5.000
     31     1.0000     0.0000     1.0000    22.4999    14.7000    136.276     37.000 500281.000    120.000    41.9902   -20.0773   -25.5357   120.0962    -0.1480    -3.0001   -56.3086   124.8937    21.1894    -0.9995     0.0015    14.0000     4.0000     4.0000     2.0000    16.0000     4.0000     6.0000    10.0000    -2.0005     2.0025   159.4167   -41.1662     2.0005    37.1999     5.0049     5.0001     5.0000     5.000
     32     1.0000     0.0000     1.0000    22.2501    14.7000    137.426     31.000 500281.000    120.000    42.1320   -20.0773   -25.6233   120.0962    -0.1480    -3.0001   -56.1026   124.3995    21.5349    -0.9995     0.0015    14.0000     4.0000     4.0000     2.0000    16.0000     4.0000     6.0000    10.0000    -2.0005     2.0025   159.4167   -41.1662     2.0004    36.9501     5.0034     5.0001     5.0000     5.000
     33     0.9999     0.0000     1.0000    21.9999    14.7000    138.422     34.000 500281.000    120.000    42.2752   -20.0773   -25.7120   120.0962    -0.1480    -3.0001   -55.8961   123.9111    21.8786    -0.9995     0.0015    14.0000     4.0000     4.0000     2.0000    16.0000     4.0000     6.0000    10.0000    -2.0005     2.0025   159.4167   -41.1662     2.0004    36.6999     5.0000     4.9986     5.0000     5.000
     34     1.0000     0.0000     1.0000    21.7499    14.7000    139.761     38.000 500281.000    120.000    42.4200   -20.0773   -25.8015   120.0962    -0.1480    -3.0001   -55.6890   123.4279    22.2211    -0.9995     0.0015    14.0000     4.0000     4.0000     2.0000    16.0000     4.0000     6.0000    10.0000    -2.0005     2.0025   159.4167   -41.1662     2.0005    36.4499     5.0029     4.9988     5.0000     5.000
     35     1.0000     0.0000     1.0000    21.5000    14.7000    140.316     39.000 500281.000    120.000    42.5662   -20.0773   -25.8920   120.0962    -0.1480    -3.0001   -55.4813   122.9493    22.5544    -0.9995     0.0015    14.0000     4.0000     4.0000     2.0000    16.0000     4.0000     6.0000    10.0000    -2.0005     2.0025   159.4167   -41.1662     2.0005    36.2000     5.0000     5.0025     5.0000     5.000
     36     1.0000     0.0000     1.0000    21.2499    14.7000    140.065     29.000 500281.000    120.000    42.7139   -20.0773   -25.9835   120.0962    -0.1480    -3.0001   -55.2730   122.4749    22.8845    -0.9995     0.0015    14.0000     4.0000     4.0000     2.0000    16.0000     4.0000     6.0000    10.0000    -2.0005     2.0025   159.4167   -41.1662     2.0004    35.9499     5.0048     5.0022     5.0000     5.000
     37     1.0000     0.0000     1.0000    20.9994    14.7000    140.841     34.000 500281.000    120.000    42.8632   -20.0773   -26.0761   120.0962    -0.1480    -3.0001   -55.0642   122.0050    23.2138    -0.9995     0.0015    14.0000     4.0000     4.0000     2.0000    16.0000     4.0000     6.0000    10.0000    -2.0005     2.0025   159.4167   -41.1662     2.0005    35.6993     4.9996     4.9983     5.0000     5.000
     38     1.0000     0.0000     1.0000    20.7501    14.7000    140.813     40.000 500281.000    120.000    43.0141   -20.0773   -26.1692   120.0962    -0.1480    -3.0001   -54.8546   121.5394    23.5361    -0.9995     0.0015    14.0000     4.0000     4.0000     2.0000    16.0000     4.0000     6.0000    10.0000    -2.0005     2.0025   159.4167   -41.1662     2.0005    35.4501     5.0072     5.0026     5.0000     5.000
     39     1.0000     0.0000     1.0000    20.5000    14.7000    140.766     39.000 500281.000    120.000    43.1666   -20.0773   -26.2637   120.0962    -0.1480    -3.0001   -54.6446   121.0774    23.8575    -0.9995     0.0015    14.0000     4.0000     4.0000     2.0000    16.0000     4.0000     6.0000    10.0000    -2.0005     2.0025   159.4167   -41.1662     2.0005    35.2000     5.0058     5.0041     5.0000     5.000
     40     1.0000     0.0000     1.0000    20.2499    14.7000    141.099     32.000 500281.000    120.000    43.3207   -20.0773   -26.3592   120.0962    -0.1480    -3.0001   -54.4338   120.6193    24.1736    -0.9995     0.0015    14.0000     4.0000     4.0000     2.0000    16.0000     4.0000     6.0000    10.0000    -2.0005     2.0025   159.4167   -41.1662     2.0005    34.9499     5.0014     5.0004     5.0000     5.000
     41     1.0000     0.0000     1.0000    20.0000    14.7000    141.705     29.000 500281.000    120.000    43.4765   -20.0773   -26.4556   120.0962    -0.1480    -3.0001   -54.2224   120.1641    24.4862    -0.9995     0.0015    14.0000     4.0000     4.0000     2.0000    16.0000     4.0000     6.0000    10.0000    -2.0005     2.0025   159.4167   -41.1662     2.0005    34.7000     4.9949     4.9993     5.0000     5.000
     42     1.0000     0.0000     1.0000    19.7508    14.7000    143.071     34.000 500281.000    120.000    43.6339   -20.0773   -26.5529   120.0962    -0.1480    -3.0001   -54.0105   119.7126    24.7975    -0.9995     0.0015    14.0000     4.0000     4.0000     2.0000    16.0000     4.0000     6.0000    10.0000    -2.0005     2.0025   159.4167   -41.1662     2.0005    34.4508     4.9940     4.9992     5.0000     5.000
     43     1.0000     0.0000     1.0000    19.4999    14.7000    144.447     38.000 500281.000    120.000    43.7931   -20.0773   -26.6519   120.0962    -0.1480    -3.0001   -53.7978   119.2643    25.1044    -0.9995     0.0015    14.0000     4.0000     4.0000     2.0000    16.0000     4.0000     6.0000    10.0000    -2.0005     2.0025   159.4167   -41.1662     2.0005    34.1998     5.0056     4.9971     5.0000     5.000
     44     1.0000     0.0000     1.0000    19.2499    14.7000    145.409     34.000 500281.000    120.000    43.9541   -20.0773   -26.7517   120.0962    -0.1480    -3.0001   -53.5845   118.8188    25.4097    -0.9995     0.0015    14.0000     4.0000     4.0000     2.0000    16.0000     4.0000     6.0000    10.0000    -2.0005     2.0025   159.4167   -41.1662     2.0005    33.9498     4.9953     4.9984     5.0000     5.000
     45     0.9999     0.0000     1.0000    18.9998    14.7000    146.276     34.000 500281.000    120.000    44.1168   -20.0773   -26.8526   120.0962    -0.1480    -3.0001   -53.3706   118.3756    25.7093    -0.9995     0.0015    14.0000     4.0000     4.0000     2.0000    16.0000     4.0000     6.0000    10.0000    -2.0005     2.0025   159.4167   -41.1662     2.0004    33.6998     4.9965     5.0021     5.0000     5.000
     46     1.0000     0.0000     1.0000    18.7502    14.7000    147.674     32.000 500281.000    120.000    44.2813   -20.0773   -26.9545   120.0962    -0.1480    -3.0001   -53.1560   117.9359    26.0109    -0.9995     0.0015    14.0000     4.0000     4.0000     2.0000    16.0000     4.0000     6.0000    10.0000    -2.0005     2.0025   159.4167   -41.1662     2.0005    33.4502     5.0026     4.9993     5.0000     5.000
     47     1.0000     0.0000     1.0000    18.5003    14.7000    148.554     36.000 500281.000    120.000    44.4478   -20.0773   -27.0577   120.0962    -0.1480    -3.0001   -52.9407   117.4984    26.3055    -0.9995     0.0015    14.0000     4.0000     4.0000     2.0000    16.0000     4.0000     6.0000    10.0000    -2.0005     2.0025   159.4167   -41.1662     2.0005    33.2003     5.0062     4.9984     5.0000     5.000
     48     1.0000     0.0000     1.0000    18.2503    14.7000    149.159     26.000 500281.000    120.000    44.6161   -20.0773   -27.1620   120.0962    -0.1480    -3.0001   -52.7248   117.0630    26.6006    -0.9995     0.0015    14.0000     4.0000     4.0000     2.0000    16.0000     4.0000     6.0000    10.0000    -2.0005     2.0025   159.4167   -41.1662     2.0005    32.9503     4.9972     4.9996     5.0000     5.000
     49     0.9999     0.0000     1.0000    17.9999    14.7000    149.793     32.000 500281.000    120.000    44.7863   -20.0773   -27.2679   120.0962    -0.1480    -3.0001   -52.5081   116.6301    26.8892    -0.9995     0.0015    14.0000     4.0000     4.0000     2.0000    16.0000     4.0000     6.0000    10.0000    -2.0005     2.0025   159.4167   -41.1662     2.0004    32.6999     5.0077     4.9973     5.0000     5.000
     50     1.0000     0.0000     1.0000    17.7496    14.7000    150.607     34.000 500281.000    120.000    44.9585   -20.0773   -27.3749   120.0962    -0.1480    -3.0001   -52.2908   116.1993    27.1815    -0.9995     0.0015    14.0000     4.0000     4.0000     2.0000    16.0000     4.0000     6.0000    10.0000    -2.0005     2.0025   159.4167   -41.1662     2.0005    32.4496     5.0057     4.9989     5.0000     5.000
     51     1.0000     0.0000     1.0000    17.5002    14.7000    151.705     42.000 500281.000    120.000    45.1326   -20.0773   -27.4827   120.0962    -0.1480    -3.0001   -52.0728   115.7704    27.4675    -0.9995     0.0015    14.0000     4.0000     4.0000     2.0000    16.0000     4.0000     6.0000    10.0000    -2.0005     2.0025   159.4167   -41.1662     2.0005    32.2002     5.0062     5.0020     5.0000     5.000
     52     1.0000     0.0000     1.0000    17.2499    14.7000    152.719     33.000 500281.000    120.000    45.3089   -20.0773   -27.5923   120.0962    -0.1480    -3.0001   -51.8540   115.3435    27.7526    -0.9995     0.0015    14.0000     4.0000     4.0000     2.0000    16.0000     4.0000     6.0000    10.0000    -2.0005     2.0025   159.4167   -41.1662     2.0005    31.9499     4.9950     4.9985     5.0000     5.000
     53     1.0001     0.0000     1.0000    17.0000    14.7000    153.594     44.000 500281.000    120.000    45.4872   -20.0773   -27.7030   120.0962    -0.1480    -3.0001   -51.6345   114.9185    28.0376    -0.9995     0.0015    14.0000     4.0000     4.0000     2.0000    16.0000     4.0000     6.0000    10.0000    -2.0005     2.0025   159.4167   -41.1662     2.0006    31.6999     5.0050     4.9992     5.0000     5.000
     54     1.0000     0.0000     1.0000    16.7506    14.7000    154.226     42.000 500281.000    120.000    45.6676   -20.0773   -27.8148   120.0962    -0.1480    -3.0001   -51.4143   114.4949    28.3148    -0.9995     0.0015    14.0000     4.0000     4.0000     2.0000    16.0000     4.0000     6.0000    10.0000    -2.0005     2.0025   159.4167   -41.1662     2.0005    31.4506     4.9963     4.9991     5.0000     5.000
     55     1.0000     0.0000     1.0000    16.4999    14.7000    154.752     41.000 500281.000    120.000    45.8503   -20.0773   -27.9286   120.0962    -0.1480    -3.0001   -51.1934   114.0729    28.5943    -0.9995     0.0015    14.0000     4.0000     4.0000     2.0000    16.0000     4.0000     6.0000    10.0000    -2.0005     2.0025   159.4167   -41.1662     2.0005    31.1999     5.0054     4.9957     5.0000     5.000
     56     1.0000     0.0000     1.0000    16.2500    14.7000    154.822     39.000 500281.000    120.000    46.0351   -20.0773   -28.0434   120.0962    -0.1480    -3.0001   -50.9717   113.6526    28.8713    -0.9995     0.0015    14.0000     4.0000     4.0000     2.0000    16.0000     4.0000     6.0000    10.0000    -2.0005     2.0025   159.4167   -41.1662     2.0005    30.9500     4.9967     5.0018     5.0000     5.000
     57     1.0000     0.0000     1.0000    16.0001    14.7000    155.358     30.000 500281.000    120.000    46.2221   -20.0773   -28.1597   120.0962    -0.1480    -3.0001   -50.7492   113.2338    29.1457    -0.9995     0.0015    14.0000     4.0000     4.0000     2.0000    16.0000     4.0000     6.0000    10.0000    -2.0005     2.0025   159.4167   -41.1662     2.0005    30.7001     4.9996     4.9977     5.0000     5.000
     58     1.0000     0.0000     1.0000    15.7499    14.7000    155.888     40.000 500281.000    120.000    46.4115   -20.0773   -28.2776   120.0962    -0.1480    -3.0001   -50.5260   112.8155    29.4189    -0.9995     0.0015    14.0000     4.0000     4.0000     2.0000    16.0000     4.0000     6.0000    10.0000    -2.0005     2.0025   159.4167   -41.1662     2.0005    30.4499     5.0037     5.0034     5.0000     5.000
     59     1.0000     0.0000     1.0000    15.5002    14.7000    156.783     25.000 500281.000    120.000    46.6032   -20.0773   -28.3966   120.0962    -0.1480    -3.0001   -50.3021   112.3995    29.6902    -0.9995     0.0015    14.0000     4.0000     4.0000     2.0000    16.0000     4.0000     6.0000    10.0000    -2.0005     2.0025   159.4167   -41.1662     2.0005    30.2002     5.0029     5.0003     5.0000     5.000
     60     1.0000     0.0000     1.0000    15.2500    14.7000    157.780     37.000 500281.000    120.000    46.7972   -20.0773   -28.5175   120.0962    -0.1480    -3.0001   -50.0773   111.9841    29.9595    -0.9995     0.0015    14.0000     4.0000     4.0000     2.0000    16.0000     4.0000     6.0000    10.0000    -2.0005     2.0025   159.4167   -41.1662     2.0005    29.9500     5.0071     4.9962     5.0000     5.000
     61     1.0000     0.0000     1.0000    14.9997    14.7000    158.167     40.000 500281.000    120.000    46.9938   -20.0773   -28.6400   120.0962    -0.1480    -3.0001   -49.8518   111.5695    30.2292    -0.9995     0.0015    14.0000     4.0000     4.0000     2.0000    16.0000     4.0000     6.0000    10.0000    -2.0005     2.0025   159.4167   -41.1662     2.0005    29.6997     4.9944     4.9985     5.0000     5.000
     62     1.0000     0.0000     1.0000    14.7502    14.7000    158.061     29.000 500281.000    120.000    47.1929   -20.0773   -28.7637   120.0962    -0.1480    -3.0001   -49.6254   111.1560    30.4925    -0.9995     0.0015    14.0000     4.0000     4.0000     2.0000    16.0000     4.0000     6.0000    10.0000    -2.0005     2.0025   159.4167   -41.1662     2.0004    29.4502     5.0063     4.9965     5.0000     5.000
     63     1.0000     0.0000     1.0000    14.5000    14.7000    156.889     52.000 500281.000    120.000    47.3944   -20.0773   -28.8893   120.0962    -0.1480    -3.0001   -49.3982   110.7439    30.7583    -0.9995     0.0015    14.0000     4.0000     4.0000     2.0000    16.0000     4.0000     6.0000    10.0000    -2.0005     2.0025   159.4167   -41.1662     2.0005    29.2000     5.0025     4.9986     5.0000     5.000
     64     1.0000     0.0000     1.0000    14.2499    14.7000    154.918     47.000 500281.000    120.000    47.5986   -20.0773   -29.0165   120.0962    -0.1480    -3.0001   -49.1702   110.3316    31.0229    -0.9995     0.0015    14.0000     4.0000     4.0000     2.0000    16.0000     4.0000     6.0000    10.0000    -2.0005     2.0025   159.4167   -41.1662     2.0005    28.9499     5.0037     4.9984     5.0000     5.000
     65     1.0000     0.0000     1.0000    14.0000    14.7000    152.097     53.000 500281.000    120.000    47.8055   -20.0773   -29.1453   120.0962    -0.1480    -3.0001   -48.9414   109.9207    31.2823    -0.9995     0.0015    14.0000     4.0000     4.0000     2.0000    16.0000     4.0000     6.0000    10.0000    -2.0005     2.0025   159.4167   -41.1662     2.0005    28.7000     5.0019     4.9990     5.0000     5.000
     66     1.0000     0.0000     1.0000    13.7499    14.7000    149.301     54.000 500281.000    120.000    48.0151   -20.0773   -29.2760   120.0962    -0.1480    -3.0001   -48.7117   109.5104    31.5420    -0.9995     0.0015    14.0000     4.0000     4.0000     2.0000    16.0000     4.0000     6.0000    10.0000    -2.0005     2.0025   159.4167   -41.1662     2.0004    28.4499     5.0056     5.0023     5.0000     5.000
     67     1.0000     0.0000     1.0000    13.4997    14.7000    148.219     35.000 500281.000    120.000    48.2274   -20.0773   -29.4085   120.0962    -0.1480    -3.0001   -48.4811   109.1005    31.8018    -0.9995     0.0015    14.0000     4.0000     4.0000     2.0000    16.0000     4.0000     6.0000    10.0000    -2.0005     2.0025   159.4167   -41.1662     2.0005    28.1997     4.9945     5.0018     5.0000     5.000
     68     1.0000     0.0000     1.0000    13.2503    14.7000    147.591     49.000 500281.000    120.000    48.4427   -20.0773   -29.5424   120.0962    -0.1480    -3.0001   -48.2497   108.6911    32.0589    -0.9995     0.0015    14.0000     4.0000     4.0000     2.0000    16.0000     4.0000     6.0000    10.0000    -2.0005     2.0025   159.4167   -41.1662     2.0005    27.9503     4.9987     4.9977     5.0000     5.000
     69     1.0000     0.0000     1.0000    13.0002    14.7000    148.469     52.000 500281.000    120.000    48.6608   -20.0773   -29.6786   120.0962    -0.1480    -3.0001   -48.0174   108.2824    32.3134    -0.9995     0.0015    14.0000     4.0000     4.0000     2.0000    16.0000     4.0000     6.0000    10.0000    -2.0005     2.0025   159.4167   -41.1662     2.0004    27.7001     5.0063     5.0001     5.0000     5.000
     70     1.0000     0.0000     1.0000    12.7501    14.7000    151.709     61.000 500281.000    120.000    48.8819   -20.0773   -29.8166   120.0962    -0.1480    -3.0001   -47.7842   107.8738    32.5697    -0.9995     0.0015    14.0000     4.0000     4.0000     2.0000    16.0000     4.0000     6.0000    10.0000    -2.0005     2.0025   159.4167   -41.1662     2.0005    27.4501     5.0014     4.9983     5.0000     5.000
     71     1.0001     0.0000     1.0000    12.4998    14.7000    154.618     54.000 500281.000    120.000    49.1060   -20.0773   -29.9567   120.0962    -0.1480    -3.0001   -47.5501   107.4650    32.8256    -0.9995     0.0015    14.0000     4.0000     4.0000     2.0000    16.0000     4.0000     6.0000    10.0000    -2.0005     2.0025   159.4167   -41.1662     2.0006    27.1998     4.9978     5.0044     5.0000     5.000
     72     1.0000     0.0000     1.0000    12.2500    14.7000    157.279     54.000 500281.000    120.000    49.3332   -20.0773   -30.0984   120.0962    -0.1480    -3.0001   -47.3151   107.0572    33.0738    -0.9995     0.0015    14.0000     4.0000     4.0000     2.0000    16.0000     4.0000     6.0000    10.0000    -2.0005     2.0025   159.4167   -41.1662     2.0005    26.9499     5.0058     4.9932     5.0000     5.000
     73     1.0000     0.0000     1.0000    12.0001    14.7000    158.123     62.000 500281.000    120.000    49.5636   -20.0773   -30.2423   120.0962    -0.1480    -3.0001   -47.0791   106.6491    33.3250    -0.9995     0.0015    14.0000     4.0000     4.0000     2.0000    16.0000     4.0000     6.0000    10.0000    -2.0005     2.0025   159.4167   -41.1662     2.0005    26.7001     5.0049     4.9966     5.0000     5.000
     74     1.0000     0.0000     1.0000    11.7502    14.7000    159.146     66.000 500281.000    120.000    49.7973   -20.0773   -30.3883   120.0962    -0.1480    -3.0001   -46.8422   106.2409    33.5740    -0.9995     0.0015    14.0000     4.0000     4.0000     2.0000    16.0000     4.0000     6.0000    10.0000    -2.0005     2.0025   159.4167   -41.1662     2.0005    26.4501     5.0008     5.0008     5.0000     5.000
     75     1.0000     0.0000     1.0000    11.5002    14.7000    158.725     70.000 500281.000    120.000    50.0343   -20.0773   -30.5364   120.0962    -0.1480    -3.0001   -46.6044   105.8335    33.8229    -0.9995     0.0015    14.0000     4.0000     4.0000     2.0000    16.0000     4.0000     6.0000    10.0000    -2.0005     2.0025   159.4167   -41.1662     2.0005    26.2002     5.0031     5.0038     5.0000     5.000
     76     1.0000     0.0000     1.0000    11.2499    14.7000    157.488     71.000 500281.000    120.000    50.2748   -20.0773   -30.6869   120.0962    -0.1480    -3.0001   -46.3655   105.4249    34.0689    -0.9995     0.0015    14.0000     4.0000     4.0000     2.0000    16.0000     4.0000     6.0000    10.0000    -2.0005     2.0025   159.4167   -41.1662     2.0004    25.9499     4.9930     4.9987     5.0000     5.000
     77     1.0000     0.0000     1.0000    11.0001    14.7000    156.766     82.000 500281.000    120.000    50.5187   -20.0773   -30.8394   120.0962    -0.1480    -3.0001   -46.1257   105.0169    34.3144    -0.9995     0.0015    14.0000     4.0000     4.0000     2.0000    16.0000     4.0000     6.0000    10.0000    -2.0005     2.0025   159.4167   -41.1662     2.0004    25.7001     5.0024     5.0014     5.0000     5.000
     78     1.0000     0.0000     1.0000    10.7500    14.7000    155.713     63.000 500281.000    120.000    50.7662   -20.0773   -30.9943   120.0962    -0.1480    -3.0001   -45.8849   104.6088    34.5605    -0.9995     0.0015    14.0000     4.0000     4.0000     2.0000    16.0000     4.0000     6.0000    10.0000    -2.0005     2.0025   159.4167   -41.1662     2.0005    25.4500     5.0065     4.9972     5.0000     5.000
     79     1.0000     0.0000     1.0000    10.4998    14.7000    154.932     66.000 500281.000    120.000    51.0174   -20.0773   -31.1517   120.0962    -0.1480    -3.0001   -45.6430   104.1996    34.8044    -0.9995     0.0015    14.0000     4.0000     4.0000     2.0000    16.0000     4.0000     6.0000    10.0000    -2.0005     2.0025   159.4167   -41.1662     2.0005    25.1998     5.0078     5.0052     5.0000     5.000
     80     1.0000     0.0000     1.0000    10.2501    14.7000    155.908     95.000 500281.000    120.000    51.2724   -20.0773   -31.3112   120.0962    -0.1480    -3.0001   -45.4002   103.7906    35.0475    -0.9995     0.0015    14.0000     4.0000     4.0000     2.0000    16.0000     4.0000     6.0000    10.0000    -2.0005     2.0025   159.4167   -41.1662     2.0005    24.9501     4.9969     4.9945     5.0000     5.000
     81     1.0000     0.0000     1.0000    10.0005    14.7000    157.086     84.000 500281.000    120.000    51.5312   -20.0773   -31.4731   120.0962    -0.1480    -3.0001   -45.1562   103.3813    35.2880    -0.9995     0.0015    14.0000     4.0000     4.0000     2.0000    16.0000     4.0000     6.0000    10.0000    -2.0005     2.0025   159.4167   -41.1662     2.0005    24.7005     5.0005     4.9988     5.0000     5.000
     82     1.0000     0.0000     1.0000     9.7499    14.7000    160.006     92.000 500281.000    120.000    51.7940   -20.0773   -31.6382   120.0962    -0.1480    -3.0001   -44.9112   102.9714    35.5268    -0.9995     0.0015    14.0000     4.0000     4.0000     2.0000    16.0000     4.0000     6.0000    10.0000    -2.0005     2.0025   159.4167   -41.1662     2.0004    24.4499     4.9951     4.9996     5.0000     5.000
     83     1.0000     0.0000     1.0000     9.4997    14.7000    163.566     97.000 500281.000    120.000    52.0609   -20.0773   -31.8056   120.0962    -0.1480    -3.0001   -44.6652   102.5607    35.7675    -0.9995     0.0015    14.0000     4.0000     4.0000     2.0000    16.0000     4.0000     6.0000    10.0000    -2.0005     2.0025   159.4167   -41.1662     2.0005    24.1997     5.0062     5.0038     5.0000     5.000
     84     1.0000     0.0000     1.0000     9.2501    14.7000    164.617     83.000 500281.000    120.000    52.3319   -20.0773   -31.9753   120.0962    -0.1480    -3.0001   -44.4180   102.1496    36.0067    -0.9995     0.0015    14.0000     4.0000     4.0000     2.0000    16.0000     4.0000     6.0000    10.0000    -2.0005     2.0025   159.4167   -41.1662     2.0005    23.9501     4.9949     4.9984     5.0000     5.000
     85     1.0000     0.0000     1.0001     8.9999    14.7000    164.195     93.000 500281.000    120.000    52.6071   -20.0773   -32.1482   120.0962    -0.1480    -3.0001   -44.1697   101.7378    36.2455    -0.9995     0.0015    14.0000     4.0000     4.0000     2.0000    16.0000     4.0000     6.0000    10.0000    -2.0005     2.0025   159.4167   -41.1662     2.0006    23.6999     5.0006     5.0023     5.0000     5.000
     86     1.0000     0.0000     1.0000     8.7500    14.7000    160.503    116.000 500281.000    120.000    52.8868   -20.0773   -32.3237   120.0962    -0.1480    -3.0001   -43.9203   101.3249    36.4788    -0.9995     0.0015    14.0000     4.0000     4.0000     2.0000    16.0000     4.0000     6.0000    10.0000    -2.0005     2.0025   159.4167   -41.1662     2.0004    23.4499     5.0056     4.9977     5.0000     5.000
     87     1.0000     0.0000     1.0000     8.4998    14.7000    154.867    108.000 500281.000    120.000    53.1710   -20.0773   -32.5023   120.0962    -0.1480    -3.0001   -43.6697   100.9116    36.7130    -0.9995     0.0015    14.0000     4.0000     4.0000     2.0000    16.0000     4.0000     6.0000    10.0000    -2.0005     2.0025   159.4167   -41.1662     2.0004    23.1998     5.0089     4.9999     5.0000     5.000
     88     1.0000     0.0000     1.0000     8.2503    14.7000    149.052    116.000 500281.000    120.000    53.4598   -20.0773   -32.6834   120.0962    -0.1480    -3.0001   -43.4180   100.4973    36.9486    -0.9995     0.0015    14.0000     4.0000     4.0000     2.0000    16.0000     4.0000     6.0000    10.0000    -2.0005     2.0025   159.4167   -41.1662     2.0005    22.9503     5.0080     5.0013     5.0000     5.000
     89     1.0000     0.0000     1.0000     7.9998    14.7000    145.584    101.000 500281.000    120.000    53.7534   -20.0773   -32.8684   120.0962    -0.1480    -3.0001   -43.1651   100.0816    37.1825    -0.9995     0.0015    14.0000     4.0000     4.0000     2.0000    16.0000     4.0000     6.0000    10.0000    -2.0005     2.0025   159.4167   -41.1662     2.0005    22.6998     4.9949     4.9994     5.0000     5.000
     90     1.0000     0.0000     1.0000     7.7499    14.7000    142.998    106.000 500281.000    120.000    54.0519   -20.0773   -33.0560   120.0962    -0.1480    -3.0001   -42.9109    99.6653    37.4154    -0.9995     0.0015    14.0000     4.0000     4.0000     2.0000    16.0000     4.0000     6.0000    10.0000    -2.0005     2.0025   159.4167   -41.1662     2.0005    22.4499     4.9956     5.0018     5.0000     5.000
     91     1.0000     0.0000     1.0000     7.5000    14.7000    143.243    115.000 500281.000    120.000    54.3554   -20.0773   -33.2470   120.0962    -0.1480    -3.0001   -42.6556    99.2477    37.6477    -0.9995     0.0015    14.0000     4.0000     4.0000     2.0000    16.0000     4.0000     6.0000    10.0000    -2.0005     2.0025   159.4167   -41.1662     2.0006    22.2000     4.9962     4.9996     5.0000     5.000
     92     1.0000     0.0000     1.0000     7.2499    14.7000    142.829    118.000 500281.000    120.000    54.6640   -20.0773   -33.4413   120.0962    -0.1480    -3.0001   -42.3989    98.8289    37.8756    -0.9995     0.0015    14.0000     4.0000     4.0000     2.0000    16.0000     4.0000     6.0000    10.0000    -2.0005     2.0025   159.4167   -41.1662     2.0004    21.9499     5.0029     5.0015     5.0000     5.000
     93     1.0000     0.0000     1.0000     7.0001    14.7000    143.462    125.000 500281.000    120.000    54.9780   -20.0773   -33.6390   120.0962    -0.1480    -3.0001   -42.1410    98.4086    38.1044    -0.9995     0.0015    14.0000     4.0000     4.0000     2.0000    16.0000     4.0000     6.0000    10.0000    -2.0005     2.0025   159.4167   -41.1662     2.0004    21.7001     4.9950     5.0024     5.0000     5.000
     94     1.0000     0.0000     1.0000     6.7499    14.7000    144.868    120.000 500281.000    120.000    55.2975   -20.0773   -33.8404   120.0962    -0.1480    -3.0001   -41.8818    97.9868    38.3343    -0.9995     0.0015    14.0000     4.0000     4.0000     2.0000    16.0000     4.0000     6.0000    10.0000    -2.0005     2.0025   159.4167   -41.1662     2.0005    21.4499     5.0019     5.0035     5.0000     5.000
     95     1.0000     0.0000     1.0000     6.5001    14.7000    146.180    118.000 500281.000    120.000    55.6225   -20.0773   -34.0453   120.0962    -0.1480    -3.0001   -41.6214    97.5643    38.5618    -0.9995     0.0015    14.0000     4.0000     4.0000     2.0000    16.0000     4.0000     6.0000    10.0000    -2.0005     2.0025   159.4167   -41.1662     2.0005    21.2001     4.9975     5.0016     5.0000     5.000
     96     1.0000     0.0000     1.0000     6.2501    14.7000    148.061    123.000 500281.000    120.000    55.9535   -20.0773   -34.2541   120.0962    -0.1480    -3.0001   -41.3595    97.1395    38.7888    -0.9995     0.0015    14.0000     4.0000     4.0000     2.0000    16.0000     4.0000     6.0000    10.0000    -2.0005     2.0025   159.4167   -41.1662     2.0005    20.9501     4.9993     4.9999     5.0000     5.000
     97     1.0000     0.0000     1.0000     5.9998    14.7000    150.680    125.000 500281.000    120.000    56.2903   -20.0773   -34.4669   120.0962    -0.1480    -3.0001   -41.0963    96.7135    39.0156    -0.9995     0.0015    14.0000     4.0000     4.0000     2.0000    16.0000     4.0000     6.0000    10.0000    -2.0005     2.0025   159.4167   -41.1662     2.0005    20.6998     4.9959     4.9964     5.0000     5.000
     98     1.0001     0.0000     1.0001     5.7500    14.7000    153.660    158.000 500281.000    120.000    56.6333   -20.0773   -34.6835   120.0962    -0.1480    -3.0001   -40.8317    96.2850    39.2418    -0.9995     0.0015    14.0000     4.0000     4.0000     2.0000    16.0000     4.0000     6.0000    10.0000    -2.0005     2.0025   159.4167   -41.1662     2.0006    20.4500     5.0068     4.9973     5.0000     5.000
     99     1.0000     0.0000     1.0000     5.5003    14.7000    156.367    161.000 500281.000    120.000    56.9827   -20.0773   -34.9040   120.0962    -0.1480    -3.0001   -40.5656    95.8558    39.4626    -0.9995     0.0015    14.0000     4.0000     4.0000     2.0000    16.0000     4.0000     6.0000    10.0000    -2.0005     2.0025   159.4167   -41.1662     2.0005    20.2003     4.9962     4.9995     5.0000     5.000
    100     1.0000     0.0000     1.0000     5.2499    14.7000    159.511    146.000 500281.000    120.000    57.3387   -20.0773   -35.1295   120.0962    -0.1480    -3.0001   -40.2982    95.4240    39.6845    -0.9995     0.0015    14.0000     4.0000     4.0000     2.0000    16.0000     4.0000     6.0000    10.0000    -2.0005     2.0025   159.4167   -41.1662     2.0004    19.9499     4.9955     4.9949     5.0000     5.000
    101     1.0000     0.0000     1.0000     5.0000    14.7000    161.631    133.000 500281.000    120.000    57.7013   -20.0773   -35.3589   120.0962    -0.1480    -3.0001   -40.0292    94.9903    39.9059    -0.9995     0.0015    14.0000     4.0000     4.0000     2.0000    16.0000     4.0000     6.0000    10.0000    -2.0005     2.0025   159.4167   -41.1662     2.0004    19.7000     5.0076     5.0000     5.0000     5.000
    102     1.0000     0.0000     1.0000     4.7501    14.7000    162.063    138.000 500281.000    120.000    58.0709   -20.0773   -35.5929   120.0962    -0.1480    -3.0001   -39.7588    94.5546    40.1266    -0.9995     0.0015    14.0000     4.0000     4.0000     2.0000    16.0000     4.0000     6.0000    10.0000    -2.0005     2.0025   159.4167   -41.1662     2.0004    19.4501     5.0047     4.9976     5.0000     5.000
    103     1.0000     0.0000     1.0000     4.5000    14.7000    163.733    138.000 500281.000    120.000    58.4478   -20.0773   -35.8317   120.0962    -0.1480    -3.0001   -39.4868    94.1164    40.3481    -0.9995     0.0015    14.0000     4.0000     4.0000     2.0000    16.0000     4.0000     6.0000    10.0000    -2.0005     2.0025   159.4167   -41.1662     2.0005    19.2000     5.0012     4.9996     5.0000     5.000
    104     1.0000     0.0000     1.0001     4.2502    14.7000    164.850    128.000 500281.000    120.000    58.8321   -20.0773   -36.0752   120.0962    -0.1480    -3.0001   -39.2133    93.6762    40.5675    -0.9995     0.0015    14.0000     4.0000     4.0000     2.0000    16.0000     4.0000     6.0000    10.0000    -2.0005     2.0025   159.4167   -41.1662     2.0005    18.9502     5.0064     5.0012     5.0000     5.000
    105     1.0000     0.0000     1.0001     4.0000    14.7000    167.111    149.000 500281.000    120.000    59.2240   -20.0773   -36.3241   120.0962    -0.1480    -3.0001   -38.9382    93.2338    40.7864    -0.9995     0.0015    14.0000     4.0000     4.0000     2.0000    16.0000     4.0000     6.0000    10.0000    -2.0005     2.0025   159.4167   -41.1662     2.0006    18.7000     5.0065     5.0017     5.0000     5.000
    106     1.0000     0.0000     1.0000     3.7501    14.7000    170.318    149.000 500281.000    120.000    59.6240   -20.0773   -36.5780   120.0962    -0.1480    -3.0001   -38.6614    92.7883    41.0016    -0.9995     0.0015    14.0000     4.0000     4.0000     2.0000    16.0000     4.0000     6.0000    10.0000    -2.0005     2.0025   159.4167   -41.1662     2.0005    18.4501     4.9930     4.9966     5.0000     5.000
    107     1.0000     0.0000     1.0000     3.4999    14.7000    174.125     96.000 500281.000    120.000    60.0321   -20.0773   -36.8374   120.0962    -0.1480    -3.0001   -38.3830    92.3402    41.2181    -0.9995     0.0015    14.0000     4.0000     4.0000     2.0000    16.0000     4.0000     6.0000    10.0000    -2.0005     2.0025   159.4167   -41.1662     2.0005    18.1999     5.0043     5.0003     5.0000     5.000
    108     1.0000     0.0000     1.0001     3.2500    14.7000    180.738     99.000 500281.000    120.000    60.4487   -20.0773   -37.1023   120.0962    -0.1480    -3.0001   -38.1029    91.8899    41.4335    -0.9995     0.0015    14.0000     4.0000     4.0000     2.0000    16.0000     4.0000     6.0000    10.0000    -2.0005     2.0025   159.4167   -41.1662     2.0006    17.9500     4.9957     5.0011     5.0000     5.000
    109     1.0000     0.0000     1.0001     3.0001    14.7000    189.679     77.000 500281.000    120.000    60.8740   -20.0773   -37.3729   120.0962    -0.1480    -3.0001   -37.8211    91.4361    41.6469    -0.9995     0.0015    14.0000     4.0000     4.0000     2.0000    16.0000     4.0000     6.0000    10.0000    -2.0005     2.0025   159.4167   -41.1662     2.0005    17.7001     4.9949     5.0002     5.0000     5.000
    110     1.0000     0.0000     1.0000     2.7500    14.7000    187.742     88.000 500281.000    120.000    61.3086   -20.0773   -37.6497   120.0962    -0.1480    -3.0001   -37.5375    90.9797    41.8585    -0.9995     0.0015    14.0000     4.0000     4.0000     2.0000    16.0000     4.0000     6.0000    10.0000    -2.0005     2.0025   159.4167   -41.1662     2.0005    17.4500     4.9998     5.0006     5.0000     5.000
    111     1.0000     0.0000     1.0000     2.5000    14.7000    184.478     70.000 500281.000    120.000    61.7525   -20.0773   -37.9327   120.0962    -0.1480    -3.0001   -37.2522    90.5199    42.0697    -0.9995     0.0015    14.0000     4.0000     4.0000     2.0000    16.0000     4.0000     6.0000    10.0000    -2.0005     2.0025   159.4167   -41.1662     2.0005    17.2000     4.9998     5.0031     5.0000     5.000
    112     1.0000     0.0000     1.0000     2.2499    14.7000    186.466     94.000 500281.000    120.000    62.2063   -20.0773   -38.2224   120.0962    -0.1480    -3.0001   -36.9649    90.0570    42.2794    -0.9995     0.0015    14.0000     4.0000     4.0000     2.0000    16.0000     4.0000     6.0000    10.0000    -2.0005     2.0025   159.4167   -41.1662     2.0004    16.9499     4.9975     5.0019     5.0000     5.000
    113     1.0000     0.0000     1.0000     1.9999    14.7000    189.651     61.000 500281.000    120.000    62.6702   -20.0773   -38.5186   120.0962    -0.1480    -3.0001   -36.6758    89.5906    42.4888    -0.9995     0.0015    14.0000     4.0000     4.0000     2.0000    16.0000     4.0000     6.0000    10.0000    -2.0005     2.0025   159.4167   -41.1662     2.0005    16.6999     5.0069     5.0024     5.0000     5.000
# Sum of Counts = 6872
# Center of Mass = 11.728311+/-0.219824
# Full Width Half-Maximum = 15.095045+/-0.173501
# 4:50:44 AM  10/26/2024   scan completed.
