# scan = 855
# date = 5/31/2023
# time = 5:34:02 PM
# proposal = 9879
# experiment = HB-1A  - Backend upgrade commissioning
# experiment_number = 978
# command = scan slita_tp 26 30 1 
# builtin_command = scan slita_tp 26 30 1
# users = Feng Ye, John Carruth, Adam Aczel, Songxue Chi, Jaime Fernandez-Baca, Masaaki Matsuda, Tao Hong, Travis Williams, Wei Tian, Michael Cox
# local_contact = Wei Tian, Adam Aczel
# scan_title = Si powder, triple axis can, slit scans
# monochromator = PG002
# analyzer = Pg002
# sense = +-+
# collimation = 40-40-40-80
# samplename = Si powdre, Si crystal, FeGa alloy, La2Ni7 crystal, Ba2.8Sr0.2CoSn2O9 crystal
# sampletype = crystal
# samplemosaic = 30.000000
# latticeconstants = 5.419666,5.419666,5.419666,90.000000,90.000000,90.000000
# ubmatrix = 0.112527,0.102287,0.104500,-0.073949,-0.073950,0.152013,0.126152,-0.134588,-0.004105
# mode = 0
# plane_normal = 0.039245,0.000005,0.999230
# ubconf = UB29May2023_80143PM.ini
# preset_type = normal 
# preset_channel = time
# preset_value = 1.000000
# def_x = slita_tp
# def_y = detector
# col_headers = 
#   Pt.   slita_tp       time   detector    monitor        mcu         m2   rad_coll         s1         s2        sgl        sgu   slitb_bt   slitb_lf   slitb_rt   slitb_tp   slita_bt   slita_lf   slita_rt        stl        stu         sz         a1         a2          q          h          k          l         ei         ef          e
      1    26.0000      1.000    586.000   7495.000      1.054    41.5367     0.0149    -9.3441   -44.5998     0.0002     0.0005    25.0000    20.0000    20.0000    25.0000    25.0000    20.0000    20.0000     0.0019    -0.0024     0.0030    20.7695    41.5355     2.0041     1.1827     1.0892     0.6349    14.4503    14.4511    -0.000
      2    27.0000      1.000    535.000   7339.000      1.032    41.5367     0.0149    -9.3441   -44.5998     0.0002     0.0005    25.0000    20.0000    20.0000    25.0000    25.0000    20.0000    20.0000     0.0019    -0.0024     0.0030    20.7695    41.5355     2.0041     1.1827     1.0892     0.6349    14.4503    14.4511    -0.000
      3    28.0000      1.000    567.000   7461.000      1.049    41.5367     0.0149    -9.3441   -44.5998     0.0002     0.0005    25.0000    20.0000    20.0000    25.0000    25.0000    20.0000    20.0000     0.0019    -0.0025     0.0029    20.7695    41.5355     2.0041     1.1827     1.0892     0.6349    14.4503    14.4511    -0.000
      4    29.0000      1.000    622.000   7367.000      1.036    41.5367     0.0149    -9.3441   -44.5998     0.0002     0.0005    25.0000    20.0000    20.0000    25.0000    25.0000    20.0000    20.0000     0.0019    -0.0024     0.0029    20.7695    41.5355     2.0041     1.1827     1.0892     0.6349    14.4503    14.4511    -0.000
      5    30.0000      1.000    620.000   7549.000      1.062    41.5367     0.0149    -9.3441   -44.5998     0.0002     0.0005    25.0000    20.0000    20.0000    25.0000    25.0000    20.0000    20.0000     0.0019    -0.0024     0.0029    20.7695    41.5355     2.0041     1.1827     1.0892     0.6349    14.4503    14.4511    -0.000
# Sum of Counts = 2930
# Center of Mass = 28.052901+/-0.733399
# Full Width Half-Maximum = 2.855520+/-0.663880
# 5:34:52 PM  5/31/2023   scan completed.
