# scan = 562
# date = 5/27/2023
# time = 9:22:53 PM
# proposal = 9879
# experiment = HB-1A  - Backend upgrade commissioning
# experiment_number = 978
# command = th2th 3 -3 0.15
# builtin_command = scan s2 @(s2)+3 @(s2)+-3 0.150000 s1 @(s1)+(3/2) @(s1)+(-3/2) 0.075000
# users = Feng Ye, John Carruth, Adam Aczel, Songxue Chi, Jaime Fernandez-Baca, Masaaki Matsuda, Tao Hong, Travis Williams, Wei Tian, Michael Cox
# local_contact = Wei Tian, Adam Aczel
# scan_title = La2Ni7, ( 0.000242 0.000239 5.999403 ), th2th, 40'-20'-S-20'-20' colli
# monochromator = PG002
# analyzer = Pg002
# sense = +-+
# collimation = 40-40-40-80
# samplename = Si powdre, Si crystal, FeGa alloy, La2Ni7 crystal, Ba2.8Sr0.2CoSn2O9 crystal
# sampletype = crystal
# samplemosaic = 30.000000
# latticeconstants = 5.084792,5.084792,24.669626,90.000000,90.000000,120.000000
# ubmatrix = -0.007838,-0.010887,0.040486,-0.193443,-0.199303,-0.001943,0.118692,-0.108301,-0.000494
# mode = 0
# plane_normal = 0.013424,0.025807,0.999577
# ubconf = UB27May2023_80143PM.ini
# preset_type = normal 
# preset_channel = mcu
# preset_value = 10.000000
# def_x = s2
# def_y = detector
# col_headers = 
#   Pt.         s2         s1       time   detector    monitor        mcu         m2   rad_coll        sgl        sgu   slitb_bt   slitb_lf   slitb_rt   slitb_tp   slita_bt   slita_lf   slita_rt   slita_tp        stl        stu         sz         a1         a2          q          h          k          l         ei         ef          e
      1   -30.6378   -12.5891     10.265     20.000  71101.000     10.000    41.5367     0.0149    -0.7692     1.4795    26.0000     4.0000     7.0000    26.0000    24.0000    10.0000     7.0000    24.0000     0.0014    -0.0025     0.0024    20.7699    41.5466     1.3952     0.0002     0.0002     5.4779    14.4503    14.4437     0.006
      2   -30.7861   -12.6646     10.263     14.000  71101.000     10.000    41.5367     0.0149    -0.7691     1.4795    26.0000     4.0000     7.0000    26.0000    24.0000    10.0000     7.0000    24.0000     0.0014    -0.0025     0.0024    20.7699    41.5466     1.4018     0.0002     0.0002     5.5037    14.4503    14.4437     0.006
      3   -30.9392   -12.7386     10.234      9.000  71101.000     10.000    41.5367     0.0149    -0.7691     1.4795    26.0000     4.0000     7.0000    26.0000    24.0000    10.0000     7.0000    24.0000     0.0014    -0.0025     0.0024    20.7699    41.5466     1.4086     0.0003     0.0003     5.5304    14.4503    14.4437     0.006
      4   -31.0907   -12.8142     10.349     21.000  71101.000     10.000    41.5367     0.0149    -0.7691     1.4795    26.0000     4.0000     7.0000    26.0000    24.0000    10.0000     7.0000    24.0000     0.0014    -0.0024     0.0024    20.7699    41.5466     1.4153     0.0003     0.0003     5.5569    14.4503    14.4437     0.006
      5   -31.2386   -12.8888     10.272     12.000  71101.000     10.000    41.5367     0.0149    -0.7691     1.4795    26.0000     4.0000     7.0000    26.0000    24.0000    10.0000     7.0000    24.0000     0.0014    -0.0025     0.0024    20.7699    41.5466     1.4219     0.0003     0.0002     5.5827    14.4503    14.4437     0.006
      6   -31.3883   -12.9642     10.250      9.000  71101.000     10.000    41.5367     0.0149    -0.7692     1.4795    26.0000     4.0000     7.0000    26.0000    24.0000    10.0000     7.0000    24.0000     0.0014    -0.0025     0.0024    20.7699    41.5466     1.4285     0.0002     0.0002     5.6087    14.4503    14.4437     0.006
      7   -31.5369   -13.0383     10.249     15.000  71101.000     10.000    41.5367     0.0149    -0.7692     1.4795    26.0000     4.0000     7.0000    26.0000    24.0000    10.0000     7.0000    24.0000     0.0014    -0.0025     0.0024    20.7699    41.5466     1.4351     0.0002     0.0002     5.6346    14.4503    14.4437     0.006
      8   -31.6869   -13.1138     10.238     29.000  71101.000     10.000    41.5367     0.0149    -0.7691     1.4795    26.0000     4.0000     7.0000    26.0000    24.0000    10.0000     7.0000    24.0000     0.0014    -0.0025     0.0024    20.7698    41.5466     1.4417     0.0002     0.0002     5.6607    14.4503    14.4437     0.006
      9   -31.8361   -13.1887     10.270     28.000  71101.000     10.000    41.5367     0.0149    -0.7692     1.4795    26.0000     4.0000     7.0000    26.0000    24.0000    10.0000     7.0000    24.0000     0.0014    -0.0025     0.0024    20.7699    41.5466     1.4484     0.0002     0.0002     5.6867    14.4503    14.4437     0.006
     10   -31.9882   -13.2642     10.243     15.000  71101.000     10.000    41.5367     0.0149    -0.7692     1.4795    26.0000     4.0000     7.0000    26.0000    24.0000    10.0000     7.0000    24.0000     0.0014    -0.0025     0.0024    20.7699    41.5466     1.4551     0.0002     0.0002     5.7132    14.4503    14.4437     0.006
     11   -32.1357   -13.3386     10.189     22.000  71101.000     10.000    41.5367     0.0149    -0.7692     1.4795    26.0000     4.0000     7.0000    26.0000    24.0000    10.0000     7.0000    24.0000     0.0014    -0.0024     0.0024    20.7698    41.5466     1.4616     0.0002     0.0002     5.7388    14.4503    14.4437     0.006
     12   -32.2858   -13.4145     10.245     49.000  71101.000     10.000    41.5367     0.0149    -0.7691     1.4795    26.0000     4.0000     7.0000    26.0000    24.0000    10.0000     7.0000    24.0000     0.0014    -0.0025     0.0024    20.7698    41.5466     1.4683     0.0002     0.0002     5.7649    14.4503    14.4437     0.006
     13   -32.4352   -13.4890     10.248     87.000  71101.000     10.000    41.5367     0.0149    -0.7691     1.4795    26.0000     4.0000     7.0000    26.0000    24.0000    10.0000     7.0000    24.0000     0.0014    -0.0025     0.0024    20.7699    41.5466     1.4749     0.0002     0.0002     5.7909    14.4503    14.4437     0.006
     14   -32.5866   -13.5643     10.282    146.000  71101.000     10.000    41.5367     0.0149    -0.7691     1.4795    26.0000     4.0000     7.0000    26.0000    24.0000    10.0000     7.0000    24.0000     0.0014    -0.0025     0.0024    20.7698    41.5466     1.4816     0.0002     0.0002     5.8172    14.4503    14.4437     0.006
     15   -32.7388   -13.6388     10.283    159.000  71101.000     10.000    41.5367     0.0149    -0.7692     1.4795    26.0000     4.0000     7.0000    26.0000    24.0000    10.0000     7.0000    24.0000     0.0014    -0.0025     0.0024    20.7698    41.5466     1.4883     0.0003     0.0003     5.8436    14.4503    14.4437     0.006
     16   -32.8890   -13.7144     10.289    202.000  71101.000     10.000    41.5367     0.0149    -0.7691     1.4795    26.0000     4.0000     7.0000    26.0000    24.0000    10.0000     7.0000    24.0000     0.0014    -0.0025     0.0024    20.7698    41.5466     1.4950     0.0002     0.0002     5.8697    14.4503    14.4437     0.006
     17   -33.0365   -13.7886     10.263    370.000  71101.000     10.000    41.5367     0.0149    -0.7691     1.4795    26.0000     4.0000     7.0000    26.0000    24.0000    10.0000     7.0000    24.0000     0.0014    -0.0025     0.0024    20.7698    41.5466     1.5015     0.0002     0.0002     5.8952    14.4503    14.4437     0.006
     18   -33.1857   -13.8645     10.262   3351.000  71101.000     10.000    41.5367     0.0149    -0.7692     1.4795    26.0000     4.0000     7.0000    26.0000    24.0000    10.0000     7.0000    24.0000     0.0014    -0.0025     0.0024    20.7698    41.5466     1.5081     0.0002     0.0002     5.9211    14.4503    14.4437     0.006
     19   -33.3373   -13.9386     10.268  19402.000  71101.000     10.000    41.5367     0.0149    -0.7692     1.4795    26.0000     4.0000     7.0000    26.0000    24.0000    10.0000     7.0000    24.0000     0.0014    -0.0025     0.0024    20.7698    41.5466     1.5148     0.0002     0.0002     5.9474    14.4503    14.4437     0.006
     20   -33.4853   -14.0139     10.299  43973.000  71101.000     10.000    41.5367     0.0149    -0.7692     1.4795    26.0000     4.0000     7.0000    26.0000    24.0000    10.0000     7.0000    24.0000     0.0014    -0.0025     0.0024    20.7698    41.5466     1.5213     0.0002     0.0002     5.9731    14.4503    14.4437     0.006
     21   -33.6357   -14.0883     10.278  47997.000  71101.000     10.000    41.5367     0.0149    -0.7692     1.4795    26.0000     4.0000     7.0000    26.0000    24.0000    10.0000     7.0000    24.0000     0.0014    -0.0025     0.0024    20.7698    41.5466     1.5279     0.0002     0.0002     5.9991    14.4503    14.4437     0.006
     22   -33.7865   -14.1644     10.225  34012.000  71101.000     10.000    41.5367     0.0149    -0.7692     1.4795    26.0000     4.0000     7.0000    26.0000    24.0000    10.0000     7.0000    24.0000     0.0014    -0.0025     0.0024    20.7698    41.5466     1.5346     0.0002     0.0002     6.0252    14.4503    14.4437     0.006
     23   -33.9359   -14.2384     10.268  18718.000  71101.000     10.000    41.5367     0.0149    -0.7692     1.4795    26.0000     4.0000     7.0000    26.0000    24.0000    10.0000     7.0000    24.0000     0.0014    -0.0025     0.0024    20.7698    41.5466     1.5412     0.0002     0.0002     6.0511    14.4503    14.4437     0.006
     24   -34.0888   -14.3142     10.340   7834.000  71101.000     10.000    41.5367     0.0149    -0.7692     1.4795    26.0000     4.0000     7.0000    26.0000    24.0000    10.0000     7.0000    24.0000     0.0014    -0.0025     0.0023    20.7698    41.5466     1.5479     0.0002     0.0002     6.0775    14.4503    14.4437     0.006
     25   -34.2388   -14.3891     10.270   1714.000  71101.000     10.000    41.5367     0.0149    -0.7692     1.4795    26.0000     4.0000     7.0000    26.0000    24.0000    10.0000     7.0000    24.0000     0.0014    -0.0025     0.0024    20.7698    41.5466     1.5545     0.0002     0.0002     6.1035    14.4503    14.4437     0.006
     26   -34.3882   -14.4644     10.198    160.000  71101.000     10.000    41.5367     0.0149    -0.7692     1.4795    26.0000     4.0000     7.0000    26.0000    24.0000    10.0000     7.0000    24.0000     0.0014    -0.0025     0.0024    20.7698    41.5466     1.5611     0.0002     0.0002     6.1293    14.4503    14.4437     0.006
     27   -34.5390   -14.5387     10.209     22.000  71101.000     10.000    41.5367     0.0149    -0.7692     1.4795    26.0000     4.0000     7.0000    26.0000    24.0000    10.0000     7.0000    24.0000     0.0014    -0.0025     0.0024    20.7698    41.5466     1.5677     0.0003     0.0003     6.1554    14.4503    14.4437     0.006
     28   -34.6869   -14.6144     10.225     16.000  71101.000     10.000    41.5367     0.0149    -0.7691     1.4795    26.0000     4.0000     7.0000    26.0000    24.0000    10.0000     7.0000    24.0000     0.0014    -0.0025     0.0024    20.7698    41.5466     1.5742     0.0002     0.0002     6.1809    14.4503    14.4437     0.006
     29   -34.8362   -14.6888     10.245     25.000  71101.000     10.000    41.5367     0.0149    -0.7691     1.4795    26.0000     4.0000     7.0000    26.0000    24.0000    10.0000     7.0000    24.0000     0.0014    -0.0024     0.0024    20.7698    41.5466     1.5808     0.0002     0.0002     6.2067    14.4503    14.4437     0.006
     30   -34.9852   -14.7643     10.168     22.000  71101.000     10.000    41.5367     0.0149    -0.7692     1.4795    26.0000     4.0000     7.0000    26.0000    24.0000    10.0000     7.0000    24.0000     0.0014    -0.0025     0.0024    20.7698    41.5466     1.5874     0.0002     0.0002     6.2324    14.4503    14.4437     0.006
     31   -35.1352   -14.8385     10.304     17.000  71101.000     10.000    41.5367     0.0149    -0.7691     1.4795    26.0000     4.0000     7.0000    26.0000    24.0000    10.0000     7.0000    24.0000     0.0014    -0.0025     0.0024    20.7698    41.5466     1.5939     0.0002     0.0002     6.2583    14.4503    14.4437     0.006
     32   -35.2873   -14.9143     10.229     11.000  71101.000     10.000    41.5367     0.0149    -0.7691     1.4795    26.0000     4.0000     7.0000    26.0000    24.0000    10.0000     7.0000    24.0000     0.0014    -0.0025     0.0024    20.7698    41.5466     1.6006     0.0002     0.0002     6.2845    14.4503    14.4437     0.006
     33   -35.4384   -14.9885     10.230     20.000  71101.000     10.000    41.5367     0.0149    -0.7691     1.4795    26.0000     4.0000     7.0000    26.0000    24.0000    10.0000     7.0000    24.0000     0.0014    -0.0025     0.0024    20.7698    41.5466     1.6073     0.0003     0.0003     6.3106    14.4503    14.4437     0.006
     34   -35.5877   -15.0642     10.189     14.000  71101.000     10.000    41.5367     0.0149    -0.7692     1.4795    26.0000     4.0000     7.0000    26.0000    24.0000    10.0000     7.0000    24.0000     0.0014    -0.0025     0.0024    20.7698    41.5466     1.6138     0.0002     0.0002     6.3363    14.4503    14.4437     0.006
     35   -35.7385   -15.1382     10.225     12.000  71101.000     10.000    41.5367     0.0149    -0.7692     1.4795    26.0000     4.0000     7.0000    26.0000    24.0000    10.0000     7.0000    24.0000     0.0014    -0.0025     0.0024    20.7698    41.5466     1.6204     0.0003     0.0003     6.3623    14.4503    14.4437     0.006
     36   -35.8911   -15.2141     10.274      9.000  71101.000     10.000    41.5367     0.0149    -0.7691     1.4795    26.0000     4.0000     7.0000    26.0000    24.0000    10.0000     7.0000    24.0000     0.0014    -0.0025     0.0024    20.7698    41.5466     1.6271     0.0003     0.0003     6.3886    14.4503    14.4437     0.006
     37   -36.0401   -15.2887     10.224     13.000  71101.000     10.000    41.5367     0.0149    -0.7692     1.4795    26.0000     4.0000     7.0000    26.0000    24.0000    10.0000     7.0000    24.0000     0.0014    -0.0025     0.0024    20.7698    41.5466     1.6337     0.0003     0.0003     6.4142    14.4503    14.4437     0.006
     38   -36.1878   -15.3645     10.291      9.000  71101.000     10.000    41.5367     0.0149    -0.7692     1.4795    26.0000     4.0000     7.0000    26.0000    24.0000    10.0000     7.0000    24.0000     0.0014    -0.0025     0.0024    20.7698    41.5466     1.6401     0.0002     0.0002     6.4396    14.4503    14.4437     0.006
     39   -36.3385   -15.4388     10.252      9.000  71101.000     10.000    41.5367     0.0149    -0.7692     1.4795    26.0000     4.0000     7.0000    26.0000    24.0000    10.0000     7.0000    24.0000     0.0014    -0.0025     0.0024    20.7698    41.5466     1.6467     0.0002     0.0002     6.4655    14.4503    14.4437     0.006
     40   -36.4872   -15.5146     10.256     12.000  71101.000     10.000    41.5367     0.0149    -0.7692     1.4795    26.0000     4.0000     7.0000    26.0000    24.0000    10.0000     7.0000    24.0000     0.0014    -0.0025     0.0024    20.7698    41.5465     1.6532     0.0002     0.0002     6.4911    14.4503    14.4437     0.006
     41   -36.6356   -15.5886     10.321     17.000  71101.000     10.000    41.5367     0.0149    -0.7691     1.4795    26.0000     4.0000     7.0000    26.0000    24.0000    10.0000     7.0000    24.0000     0.0014    -0.0025     0.0024    20.7698    41.5466     1.6597     0.0002     0.0002     6.5166    14.4503    14.4437     0.006
# Sum of Counts = 178596
# Center of Mass = -33.639575+/-0.112573
# Full Width Half-Maximum = 0.490525+/-0.063448
# 9:34:21 PM  5/27/2023   scan completed.
