# scan = 53
# date = 5/24/2023
# time = 5:36:48 PM
# proposal = 9879
# experiment = HB-1A  - Backend upgrade commissioning
# experiment_number = 978
# command = scan h .85 k 1.15 l 0 e -3 -11 -.25 preset time 1
# builtin_command = scan h .85 k 1.15 l 0 e -3 -11 -.25 preset time 1
# users = Feng Ye, John Carruth, Adam Aczel, Songxue Chi, Jaime Fernandez-Baca, Masaaki Matsuda, Tao Hong, Travis Williams, Wei Tian, Michael Cox
# local_contact = Wei Tian, Adam Aczel
# scan_title = T2110, q = .15, focused, E-gain
# monochromator = PG002
# analyzer = Pg002
# sense = +-+
# collimation = 40-40-40-80
# samplename = Si powdre, Si crystal, FeGa alloy, La2Ni7 crystal, Ba2.8Sr0.2CoSn2O9 crystal
# sampletype = crystal
# samplemosaic = 30.000000
# latticeconstants = 2.890068,2.890068,2.890068,90.000000,90.000000,90.000000
# ubmatrix = 0.346005,0.001684,0.001510,0.001785,-0.345165,-0.024140,0.001389,0.024147,-0.345166
# mode = 0
# plane_normal = -0.004365,0.069766,0.997554
# ubconf = UB24May2023_50219PM.ini
# preset_type = normal 
# preset_channel = time
# preset_value = 1.000000
# def_x = e
# def_y = detector
# col_headers = 
#   Pt.          h          k          l          e       time   detector    monitor        mcu         m2   rad_coll         s1         s2        sgl        sgu   slitb_bt   slitb_lf   slitb_rt   slitb_tp   slita_bt   slita_lf   slita_rt   slita_tp        stl        stu         sz         a1         a2          q         ei         ef
      1     0.8501     1.1500    -0.0000    -3.0019      1.000      0.000      0.000      0.000    41.5367     0.0149    23.2201   -68.0495     0.2501     4.0006    30.0000    15.0000    15.0000    30.0000    28.0000    15.0000    15.0000    28.0000     0.0009    -0.0023     0.0017    18.8261    37.6473     3.1091    14.4503    17.452
      2     0.8500     1.1500    -0.0000    -3.2499      1.000      0.000      0.000      0.000    41.5367     0.0149    23.7054   -67.7314     0.2501     4.0006    30.0000    15.0000    15.0000    30.0000    28.0000    15.0000    15.0000    28.0000     0.0009    -0.0023     0.0018    18.6861    37.3728     3.1090    14.4503    17.700
      3     0.8500     1.1500    -0.0000    -3.5001      1.000      0.000      0.000      0.000    41.5367     0.0149    24.1876   -67.4134     0.2501     4.0006    30.0000    15.0000    15.0000    30.0000    28.0000    15.0000    15.0000    28.0000     0.0009    -0.0023     0.0018    18.5507    37.1018     3.1090    14.4503    17.950
      4     0.8500     1.1501    -0.0000    -3.7496      1.000      0.000      0.000      0.000    41.5367     0.0149    24.6681   -67.1014     0.2501     4.0006    30.0000    15.0000    15.0000    30.0000    28.0000    15.0000    15.0000    28.0000     0.0009    -0.0023     0.0018    18.4193    36.8375     3.1091    14.4503    18.199
      5     0.8500     1.1501    -0.0000    -3.9993      1.000      0.000      0.000      0.000    41.5367     0.0149    25.1468   -66.7895     0.2501     4.0006    30.0000    15.0000    15.0000    30.0000    28.0000    15.0000    15.0000    28.0000     0.0009    -0.0023     0.0018    18.2889    36.5784     3.1091    14.4503    18.449
      6     0.8500     1.1500    -0.0000    -4.2501      1.000      0.000      0.000      0.000    41.5367     0.0149    25.6228   -66.4763     0.2501     4.0013    30.0000    15.0000    15.0000    30.0000    28.0000    15.0000    15.0000    28.0000     0.0009    -0.0023     0.0018    18.1627    36.3237     3.1090    14.4503    18.700
      7     0.8500     1.1500    -0.0000    -4.4999      1.000      0.000      0.000      0.000    41.5367     0.0149    26.0971   -66.1710     0.2501     4.0012    30.0000    15.0000    15.0000    30.0000    28.0000    15.0000    15.0000    28.0000     0.0009    -0.0023     0.0018    18.0376    36.0752     3.1090    14.4503    18.950
      8     0.8500     1.1501    -0.0000    -4.7498      1.000      0.000      1.000      0.000    41.5367     0.0149    26.5693   -65.8678     0.2501     4.0012    30.0000    15.0000    15.0000    30.0000    28.0000    15.0000    15.0000    28.0000     0.0009    -0.0023     0.0018    17.9157    35.8316     3.1091    14.4503    19.200
      9     0.8500     1.1500    -0.0000    -4.9990      1.000      0.000      0.000      0.000    41.5367     0.0149    27.0394   -65.5634     0.2501     4.0012    30.0000    15.0000    15.0000    30.0000    28.0000    15.0000    15.0000    28.0000     0.0009    -0.0022     0.0018    17.7960    35.5936     3.1090    14.4503    19.449
     10     0.8500     1.1500    -0.0000    -5.2496      1.000      0.000      0.000      0.000    41.5367     0.0149    27.5074   -65.2620     0.2501     4.0012    30.0000    15.0000    15.0000    30.0000    28.0000    15.0000    15.0000    28.0000     0.0009    -0.0023     0.0018    17.6788    35.3590     3.1090    14.4503    19.699
     11     0.8500     1.1500    -0.0000    -5.5003      1.000      0.000      0.000      0.000    41.5367     0.0149    27.9748   -64.9625     0.2501     4.0012    30.0000    15.0000    15.0000    30.0000    28.0000    15.0000    15.0000    28.0000     0.0009    -0.0023     0.0017    17.5644    35.1288     3.1090    14.4503    19.950
     12     0.8500     1.1500    -0.0000    -5.7498      1.000      0.000      0.000      0.000    41.5367     0.0149    28.4391   -64.6659     0.2501     4.0012    30.0000    15.0000    15.0000    30.0000    28.0000    15.0000    15.0000    28.0000     0.0009    -0.0023     0.0018    17.4522    34.9042     3.1090    14.4503    20.200
     13     0.8500     1.1500    -0.0000    -5.9991      1.000      0.000      0.000      0.000    41.5367     0.0149    28.9019   -64.3693     0.2501     4.0012    30.0000    15.0000    15.0000    30.0000    28.0000    15.0000    15.0000    28.0000     0.0009    -0.0023     0.0018    17.3418    34.6840     3.1089    14.4503    20.449
     14     0.8500     1.1500    -0.0000    -6.2493      1.000      0.000      0.000      0.000    41.5367     0.0149    29.3636   -64.0763     0.2501     4.0012    30.0000    15.0000    15.0000    30.0000    28.0000    15.0000    15.0000    28.0000     0.0009    -0.0023     0.0018    17.2335    34.4672     3.1089    14.4503    20.699
     15     0.8500     1.1501    -0.0000    -6.5002      1.000      0.000      0.000      0.000    41.5367     0.0149    29.8230   -63.7872     0.2501     4.0012    30.0000    15.0000    15.0000    30.0000    28.0000    15.0000    15.0000    28.0000     0.0009    -0.0023     0.0018    17.1275    34.2537     3.1091    14.4503    20.950
     16     0.8500     1.1501    -0.0000    -6.7496      1.000      0.000      0.000      0.000    41.5367     0.0149    30.2810   -63.4987     0.2501     4.0012    30.0000    15.0000    15.0000    30.0000    28.0000    15.0000    15.0000    28.0000     0.0009    -0.0023     0.0018    17.0224    34.0454     3.1091    14.4503    21.199
     17     0.8500     1.1501    -0.0000    -6.9994      1.000      0.000      0.000      0.000    41.5367     0.0149    30.7372   -63.2109     0.2501     4.0012    30.0000    15.0000    15.0000    30.0000    28.0000    15.0000    15.0000    28.0000     0.0009    -0.0023     0.0018    16.9200    33.8406     3.1091    14.4503    21.449
     18     0.8500     1.1501    -0.0000    -7.2494      1.000      0.000      0.000      0.000    41.5367     0.0149    31.1921   -62.9257     0.2501     4.0012    30.0000    15.0000    15.0000    30.0000    28.0000    15.0000    15.0000    28.0000     0.0009    -0.0023     0.0018    16.8191    33.6393     3.1091    14.4503    21.699
     19     0.8500     1.1500    -0.0000    -7.4992      1.000      0.000      1.000      0.000    41.5367     0.0149    31.6451   -62.6383     0.2501     4.0012    30.0000    15.0000    15.0000    30.0000    28.0000    15.0000    15.0000    28.0000     0.0009    -0.0023     0.0018    16.7202    33.4417     3.1090    14.4503    21.949
     20     0.8500     1.1500    -0.0000    -7.7502      1.000      0.000      0.000      0.000    41.5367     0.0149    32.0973   -62.3543     0.2501     4.0012    30.0000    15.0000    15.0000    30.0000    28.0000    15.0000    15.0000    28.0000     0.0009    -0.0023     0.0018    16.6230    33.2465     3.1090    14.4503    22.200
     21     0.8500     1.1499    -0.0000    -7.9999      1.000      0.000      0.000      0.000    41.5367     0.0149    32.5483   -62.0691     0.2501     4.0012    30.0000    15.0000    15.0000    30.0000    28.0000    15.0000    15.0000    28.0000     0.0009    -0.0023     0.0018    16.5281    33.0558     3.1089    14.4503    22.450
     22     0.8500     1.1500    -0.0000    -8.2495      1.000      0.000      0.000      0.000    41.5367     0.0149    32.9976   -61.7922     0.2501     4.0012    30.0000    15.0000    15.0000    30.0000    28.0000    15.0000    15.0000    28.0000     0.0009    -0.0023     0.0018    16.4345    32.8684     3.1090    14.4503    22.699
     23     0.8500     1.1500    -0.0000    -8.4991      1.000      0.000      0.000      0.000    41.5367     0.0149    33.4451   -61.5137     0.2501     4.0012    30.0000    15.0000    15.0000    30.0000    28.0000    15.0000    15.0000    28.0000     0.0009    -0.0023     0.0018    16.3421    32.6842     3.1090    14.4503    22.949
     24     0.8500     1.1500    -0.0000    -8.7493      1.000      0.000      0.000      0.000    41.5367     0.0149    33.8931   -61.2355     0.2501     4.0012    30.0000    15.0000    15.0000    30.0000    28.0000    15.0000    15.0000    28.0000     0.0009    -0.0023     0.0018    16.2511    32.5025     3.1090    14.4503    23.199
     25     0.8500     1.1499    -0.0000    -8.9995      1.000      0.000      0.000      0.000    41.5367     0.0149    34.3384   -60.9549     0.2501     4.0012    30.0000    15.0000    15.0000    30.0000    28.0000    15.0000    15.0000    28.0000     0.0009    -0.0023     0.0018    16.1623    32.3239     3.1088    14.4503    23.449
     26     0.8500     1.1501    -0.0000    -9.2505      1.000      0.000      0.000      0.000    41.5367     0.0149    34.7830   -60.6880     0.2501     4.0012    30.0000    15.0000    15.0000    30.0000    28.0000    15.0000    15.0000    28.0000     0.0009    -0.0023     0.0018    16.0740    32.1476     3.1092    14.4503    23.700
     27     0.8500     1.1499    -0.0000    -9.4997      1.000      0.000      0.000      0.000    41.5367     0.0149    35.2256   -60.4073     0.2501     4.0012    30.0000    15.0000    15.0000    30.0000    28.0000    15.0000    15.0000    28.0000     0.0009    -0.0023     0.0018    15.9879    31.9754     3.1088    14.4503    23.950
     28     0.8500     1.1500    -0.0000    -9.7490      1.000      0.000      0.000      0.000    41.5367     0.0149    35.6684   -60.1396     0.2501     4.0012    30.0000    15.0000    15.0000    30.0000    28.0000    15.0000    15.0000    28.0000     0.0009    -0.0023     0.0017    15.9024    31.8058     3.1090    14.4503    24.199
     29     0.8500     1.1500    -0.0000    -9.9993      1.000      0.000      0.000      0.000    41.5367     0.0149    36.1096   -59.8682     0.2501     4.0012    30.0000    15.0000    15.0000    30.0000    28.0000    15.0000    15.0000    28.0000     0.0009    -0.0023     0.0018    15.8186    31.6383     3.1090    14.4503    24.449
     30     0.8500     1.1499    -0.0000   -10.2495      1.000      0.000      0.000      0.000    41.5367     0.0149    36.5495   -59.5951     0.2501     4.0012    30.0000    15.0000    15.0000    30.0000    28.0000    15.0000    15.0000    28.0000     0.0009    -0.0023     0.0018    15.7363    31.4735     3.1089    14.4503    24.699
     31     0.8500     1.1501    -0.0000   -10.5001      1.000      0.000      0.000      0.000    41.5367     0.0149    36.9885   -59.3324     0.2501     4.0012    30.0000    15.0000    15.0000    30.0000    28.0000    15.0000    15.0000    28.0000     0.0009    -0.0023     0.0018    15.6551    31.3110     3.1092    14.4503    24.950
     32     0.8500     1.1500    -0.0000   -10.7502      1.000      0.000      0.000      0.000    41.5367     0.0149    37.4261   -59.0622     0.2501     4.0012    30.0000    15.0000    15.0000    30.0000    28.0000    15.0000    15.0000    28.0000     0.0009    -0.0023     0.0017    15.5757    31.1513     3.1090    14.4503    25.200
     33     0.8500     1.1500    -0.0000   -10.9997      1.000      0.000      0.000      0.000    41.5367     0.0149    37.8641   -58.7945     0.2501     4.0012    30.0000    15.0000    15.0000    30.0000    28.0000    15.0000    15.0000    28.0000     0.0009    -0.0023     0.0018    15.4976    30.9943     3.1090    14.4503    25.450
# Sum of Counts = 0
# Center of Mass = NaN+/-NaN
# Full Width Half-Maximum = NaN+/-NaN
# 5:39:15 PM  5/24/2023   scan completed.
