# scan = 859
# date = 5/31/2023
# time = 5:50:34 PM
# proposal = 9879
# experiment = HB-1A  - Backend upgrade commissioning
# experiment_number = 978
# command = scan slita_rt 0 20 1  
# builtin_command = scan slita_rt 0 20 1
# users = Feng Ye, John Carruth, Adam Aczel, Songxue Chi, Jaime Fernandez-Baca, Masaaki Matsuda, Tao Hong, Travis Williams, Wei Tian, Michael Cox
# local_contact = Wei Tian, Adam Aczel
# scan_title = Si powder, triple axis can, slit scans
# monochromator = PG002
# analyzer = Pg002
# sense = +-+
# collimation = 40-40-40-80
# samplename = Si powdre, Si crystal, FeGa alloy, La2Ni7 crystal, Ba2.8Sr0.2CoSn2O9 crystal
# sampletype = crystal
# samplemosaic = 30.000000
# latticeconstants = 5.419666,5.419666,5.419666,90.000000,90.000000,90.000000
# ubmatrix = 0.112527,0.102287,0.104500,-0.073949,-0.073950,0.152013,0.126152,-0.134588,-0.004105
# mode = 0
# plane_normal = 0.039245,0.000005,0.999230
# ubconf = UB29May2023_80143PM.ini
# preset_type = normal 
# preset_channel = time
# preset_value = 1.000000
# def_x = slita_rt
# def_y = detector
# col_headers = 
#   Pt.   slita_rt       time   detector    monitor        mcu         m2   rad_coll         s1         s2        sgl        sgu   slitb_bt   slitb_lf   slitb_rt   slitb_tp   slita_bt   slita_lf   slita_tp        stl        stu         sz         a1         a2          q          h          k          l         ei         ef          e
      1     0.0000      1.000    305.000   7367.000      1.036    41.5367     0.0149    -9.3441   -44.5998     0.0002     0.0005    25.0000    20.0000    20.0000    25.0000    25.0000    10.0000    25.0000     0.0019    -0.0025     0.0030    20.7695    41.5355     2.0041     1.1827     1.0892     0.6349    14.4503    14.4511    -0.000
      2     1.0000      1.000    405.000   7456.000      1.049    41.5367     0.0149    -9.3441   -44.5998     0.0002     0.0005    25.0000    20.0000    20.0000    25.0000    25.0000    10.0000    25.0000     0.0019    -0.0024     0.0030    20.7695    41.5355     2.0041     1.1827     1.0892     0.6349    14.4503    14.4511    -0.000
      3     2.0000      1.000    419.000   7384.000      1.039    41.5367     0.0149    -9.3441   -44.5998     0.0002     0.0005    25.0000    20.0000    20.0000    25.0000    25.0000    10.0000    25.0000     0.0019    -0.0024     0.0030    20.7695    41.5355     2.0041     1.1827     1.0892     0.6349    14.4503    14.4511    -0.000
      4     3.0000      1.000    504.000   7403.000      1.041    41.5367     0.0149    -9.3441   -44.5998     0.0002     0.0005    25.0000    20.0000    20.0000    25.0000    25.0000    10.0000    25.0000     0.0019    -0.0024     0.0029    20.7695    41.5355     2.0041     1.1827     1.0892     0.6349    14.4503    14.4511    -0.000
      5     4.0000      1.000    505.000   7432.000      1.045    41.5367     0.0149    -9.3441   -44.5998     0.0002     0.0005    25.0000    20.0000    20.0000    25.0000    25.0000    10.0000    25.0000     0.0019    -0.0025     0.0030    20.7695    41.5355     2.0041     1.1827     1.0892     0.6349    14.4503    14.4511    -0.000
      6     5.0000      1.000    509.000   7467.000      1.050    41.5367     0.0149    -9.3441   -44.5998     0.0002     0.0005    25.0000    20.0000    20.0000    25.0000    25.0000    10.0000    25.0000     0.0019    -0.0024     0.0029    20.7695    41.5355     2.0041     1.1827     1.0892     0.6349    14.4503    14.4511    -0.000
      7     6.0000      1.000    563.000   7508.000      1.056    41.5367     0.0149    -9.3441   -44.5998     0.0002     0.0005    25.0000    20.0000    20.0000    25.0000    25.0000    10.0000    25.0000     0.0019    -0.0024     0.0029    20.7696    41.5355     2.0041     1.1827     1.0892     0.6349    14.4503    14.4511    -0.000
      8     7.0000      1.000    577.000   7498.000      1.055    41.5367     0.0149    -9.3441   -44.5998     0.0002     0.0005    25.0000    20.0000    20.0000    25.0000    25.0000    10.0000    25.0000     0.0019    -0.0024     0.0029    20.7696    41.5355     2.0041     1.1827     1.0892     0.6349    14.4503    14.4511    -0.000
      9     8.0000      1.000    561.000   7439.000      1.046    41.5367     0.0149    -9.3441   -44.5998     0.0002     0.0005    25.0000    20.0000    20.0000    25.0000    25.0000    10.0000    25.0000     0.0019    -0.0025     0.0030    20.7695    41.5355     2.0041     1.1827     1.0892     0.6349    14.4503    14.4511    -0.000
     10     9.0000      1.000    603.000   7517.000      1.057    41.5367     0.0149    -9.3441   -44.5998     0.0002     0.0005    25.0000    20.0000    20.0000    25.0000    25.0000    10.0000    25.0000     0.0019    -0.0025     0.0029    20.7695    41.5355     2.0041     1.1827     1.0892     0.6349    14.4503    14.4511    -0.000
     11    10.0000      1.000    594.000   7332.000      1.031    41.5367     0.0149    -9.3441   -44.5998     0.0002     0.0005    25.0000    20.0000    20.0000    25.0000    25.0000    10.0000    25.0000     0.0019    -0.0024     0.0030    20.7696    41.5355     2.0041     1.1827     1.0892     0.6349    14.4503    14.4511    -0.000
     12    11.0000      1.000    544.000   7300.000      1.027    41.5367     0.0149    -9.3441   -44.5998     0.0002     0.0005    25.0000    20.0000    20.0000    25.0000    25.0000    10.0000    25.0000     0.0019    -0.0024     0.0029    20.7695    41.5355     2.0041     1.1827     1.0892     0.6349    14.4503    14.4511    -0.000
     13    12.0000      1.000    577.000   7496.000      1.054    41.5367     0.0149    -9.3441   -44.5998     0.0002     0.0005    25.0000    20.0000    20.0000    25.0000    25.0000    10.0000    25.0000     0.0019    -0.0025     0.0030    20.7696    41.5355     2.0041     1.1827     1.0892     0.6349    14.4503    14.4511    -0.000
     14    13.0000      1.000    567.000   7478.000      1.052    41.5367     0.0149    -9.3441   -44.5998     0.0002     0.0005    25.0000    20.0000    20.0000    25.0000    25.0000    10.0000    25.0000     0.0019    -0.0025     0.0030    20.7695    41.5355     2.0041     1.1827     1.0892     0.6349    14.4503    14.4511    -0.000
     15    14.0000      1.000    581.000   7341.000      1.032    41.5367     0.0149    -9.3441   -44.5998     0.0002     0.0005    25.0000    20.0000    20.0000    25.0000    25.0000    10.0000    25.0000     0.0019    -0.0025     0.0030    20.7695    41.5355     2.0041     1.1827     1.0892     0.6349    14.4503    14.4511    -0.000
     16    15.0000      1.000    544.000   7416.000      1.043    41.5367     0.0149    -9.3441   -44.5998     0.0002     0.0005    25.0000    20.0000    20.0000    25.0000    25.0000    10.0000    25.0000     0.0019    -0.0024     0.0030    20.7695    41.5355     2.0041     1.1827     1.0892     0.6349    14.4503    14.4511    -0.000
     17    16.0000      1.000    550.000   7424.000      1.044    41.5367     0.0149    -9.3441   -44.5998     0.0002     0.0005    25.0000    20.0000    20.0000    25.0000    25.0000    10.0000    25.0000     0.0019    -0.0025     0.0030    20.7695    41.5355     2.0041     1.1827     1.0892     0.6349    14.4503    14.4511    -0.000
     18    17.0000      1.000    635.000   7406.000      1.042    41.5367     0.0149    -9.3441   -44.5998     0.0002     0.0005    25.0000    20.0000    20.0000    25.0000    25.0000    10.0000    25.0000     0.0019    -0.0024     0.0030    20.7696    41.5355     2.0041     1.1827     1.0892     0.6349    14.4503    14.4511    -0.000
     19    18.0000      1.000    599.000   7452.000      1.048    41.5367     0.0149    -9.3441   -44.5998     0.0002     0.0005    25.0000    20.0000    20.0000    25.0000    25.0000    10.0000    25.0000     0.0019    -0.0024     0.0030    20.7695    41.5355     2.0041     1.1827     1.0892     0.6349    14.4503    14.4511    -0.000
     20    19.0000      1.000    569.000   7397.000      1.040    41.5367     0.0149    -9.3441   -44.5998     0.0002     0.0005    25.0000    20.0000    20.0000    25.0000    25.0000    10.0000    25.0000     0.0019    -0.0024     0.0030    20.7695    41.5355     2.0041     1.1827     1.0892     0.6349    14.4503    14.4511    -0.000
     21    20.0000      1.000    571.000   7379.000      1.038    41.5367     0.0149    -9.3441   -44.5998     0.0002     0.0005    25.0000    20.0000    20.0000    25.0000    25.0000    10.0000    25.0000     0.0019    -0.0025     0.0030    20.7695    41.5355     2.0041     1.1827     1.0892     0.6349    14.4503    14.4511    -0.000
# Sum of Counts = 11282
# Center of Mass = 10.616291+/-0.151589
# Full Width Half-Maximum = 11.634326+/-0.112912
# 5:54:22 PM  5/31/2023   scan completed.
