# scan = 26
# date = 4/17/2024
# time = 10:32:02 AM
# proposal = 32293
# experiment = Splitting of Excitations in a High-Spin Ising Ferromagnet
# experiment_number = 416
# command = scan s2 71 56 0.25 preset time 20
# builtin_command = scan s2 71 56 0.25 preset time 20
# users = Aashish Sapkota, Benjamin Ueland, Dhurba Jaishi, Fei Li, Rob McQueeney, Tianxiong Han
# local_contact = Tao Hong and Bing Li
# scan_title = Energy scan at q = 0.75, T = 1.7 K
# monochromator = PG002
# analyzer = Pg002
# sense = -+-
# collimation = 48-40-40-120
# samplename = powder sample
# sampletype = crystal
# samplemosaic = 30.000000
# latticeconstants = 5.000000,5.000000,5.000000,90.000000,90.000000,90.000000
# ubmatrix = -0.141421,-0.141421,-0.000000,0.000000,0.000000,-0.200000,0.141421,-0.141421,0.000000
# mode = 0
# plane_normal = 0.000000,0.000000,1.000000
# ubconf = UB16Apr2024_93121AM.ini
# preset_type = normal 
# preset_channel = time
# preset_value = 20.000000
# def_x = s2
# def_y = detector
# col_headers = 
#   Pt.         s2       time   detector    monitor        mcu focal_length         m1         m2       marc     mtrans     mfocus         s1        sgl        sgu        bbb        bbl        bbr        bbt        bab        bal        bar        bat        stl        stu         a1         a2     afocus        qm1        qm2        qm3        qm4        qm5        qm6        qm7        qm8        xm1        xm2        xm3        xm4        xm5        xm6        xm7        xm8          q          h          k          l         ei         ef          e        vti     sample       temp dr_tsample    dr_temp
      1    71.0000     20.000     41.000  47995.000     21.816   101.6756   140.5490   -78.9019     0.4200    -1.0000    27.6280    -0.0075     0.0000     0.0000     0.0000     0.0000     0.0000     0.0000    11.0000     4.0000     4.0000    11.0000     0.0000     0.0000   140.5490   -78.9019     3.5000     0.0000     0.0000     0.0000     0.0000     0.0000     0.0000     0.0000     0.0000     0.0000     0.0000     0.0000     0.0000     0.0000     0.0000     0.0000     0.0000     1.7115     0.7840     0.7840     0.7911     4.5000     4.5000     0.0000     1.6896     0.0000     1.0000     1.6998     1.700
      2    70.7500     20.000     32.000  47639.000     21.654   101.6756   140.5490   -78.9019     0.4200    -1.0000    27.6280    -0.0075     0.0000     0.0000     0.0000     0.0000     0.0000     0.0000    11.0000     4.0000     4.0000    11.0000     0.0000     0.0000   140.5490   -78.9019     3.5000     0.0000     0.0000     0.0000     0.0000     0.0000     0.0000     0.0000     0.0000     0.0000     0.0000     0.0000     0.0000     0.0000     0.0000     0.0000     0.0000     1.7063     0.7828     0.7828     0.7862     4.5000     4.5000     0.0000     1.6895     0.0000     1.0000     1.7031     1.700
      3    70.5000     20.000     46.000  47875.000     21.761   101.6756   140.5490   -78.9019     0.4200    -1.0000    27.6280    -0.0075     0.0000     0.0000     0.0000     0.0000     0.0000     0.0000    11.0000     4.0000     4.0000    11.0000     0.0000     0.0000   140.5490   -78.9019     3.5000     0.0000     0.0000     0.0000     0.0000     0.0000     0.0000     0.0000     0.0000     0.0000     0.0000     0.0000     0.0000     0.0000     0.0000     0.0000     0.0000     1.7010     0.7816     0.7816     0.7814     4.5000     4.5000     0.0000     1.6894     0.0000     1.0000     1.7031     1.700
      4    70.2500     20.000     46.000  47756.000     21.707   101.6756   140.5490   -78.9019     0.4200    -1.0000    27.6280    -0.0075     0.0000     0.0000     0.0000     0.0000     0.0000     0.0000    11.0000     4.0000     4.0000    11.0000     0.0000     0.0000   140.5490   -78.9019     3.5000     0.0000     0.0000     0.0000     0.0000     0.0000     0.0000     0.0000     0.0000     0.0000     0.0000     0.0000     0.0000     0.0000     0.0000     0.0000     0.0000     1.6958     0.7804     0.7804     0.7766     4.5000     4.5000     0.0000     1.6894     0.0000     1.0000     1.7031     1.700
      5    70.0000     20.000      0.000      0.000      0.000   101.6756   140.5490   -78.9019     0.4200    -1.0000    27.6280    -0.0075     0.0000     0.0000     0.0000     0.0000     0.0000     0.0000    11.0000     4.0000     4.0000    11.0000     0.0000     0.0000   140.5490   -78.9019     3.5000     0.0000     0.0000     0.0000     0.0000     0.0000     0.0000     0.0000     0.0000     0.0000     0.0000     0.0000     0.0000     0.0000     0.0000     0.0000     0.0000     1.6905     0.7791     0.7791     0.7718     4.5000     4.5000     0.0000     1.6894     0.0000     1.0000     1.6992     1.700
# Sum of Counts = 165
# Center of Mass = 70.603030+/-7.773169
# Full Width Half-Maximum = 0.569391+/-7.923569
# 10:34:33 AM  4/17/2024   scan stopped!!
