# scan = 40
# date = 4/18/2024
# time = 9:02:29 AM
# proposal = 32293
# experiment = Splitting of Excitations in a High-Spin Ising Ferromagnet
# experiment_number = 416
# command = scan q 0.6 e 0.28 0.4 0.04
# builtin_command = scan q 0.6 e 0.28 0.4 0.04
# users = Aashish Sapkota, Benjamin Ueland, Dhurba Jaishi, Fei Li, Rob McQueeney, Tianxiong Han
# local_contact = Tao Hong and Bing Li
# scan_title = Energy scan at q = 0.6, T = 40 K
# monochromator = PG002
# analyzer = Pg002
# sense = -+-
# collimation = 48-40-40-120
# samplename = powder sample
# sampletype = crystal
# samplemosaic = 30.000000
# latticeconstants = 5.000000,5.000000,5.000000,90.000000,90.000000,90.000000
# ubmatrix = -0.141421,-0.141421,-0.000000,0.000000,0.000000,-0.200000,0.141421,-0.141421,0.000000
# mode = 0
# plane_normal = 0.000000,0.000000,1.000000
# ubconf = UB16Apr2024_93121AM.ini
# preset_type = normal 
# preset_channel = mcu
# preset_value = 1980.000000
# def_x = e
# def_y = detector
# col_headers = 
#   Pt.          q          e       time   detector    monitor        mcu focal_length         m1         m2       marc     mtrans     mfocus         s1         s2        sgl        sgu        bbb        bbl        bbr        bbt        bab        bal        bar        bat        stl        stu         a1         a2     afocus        qm1        qm2        qm3        qm4        qm5        qm6        qm7        qm8        xm1        xm2        xm3        xm4        xm5        xm6        xm7        xm8          h          k          l         ei         ef        vti     sample       temp dr_tsample    dr_temp
      1     0.6000     0.2800   1799.230    190.000 4356001.000   1980.000    98.6495   141.9371   -76.1257     0.4200    -1.0000    28.2120    -0.0025    23.0688     0.0000     0.0000     0.0000     0.0000     0.0000     0.0000    13.0000     4.0000     4.0000    12.0000     0.0000     0.0000   140.5490   -78.9019     3.5000     0.0000     0.0000     0.0000     0.0000     0.0000     0.0000     0.0000     0.0000     0.0000     0.0000     0.0000     0.0000     0.0000     0.0000     0.0000     0.0000     0.3249     0.3249     0.1297     4.7800     4.5000    40.0009     0.0000    40.0000    40.3460    40.000
      2     0.6000     0.3200   1804.841    113.000 4356001.000   1980.000    98.2290   142.1234   -75.7532     0.4200    -1.0000    28.2960    -0.0025    23.0002     0.0000     0.0000     0.0000     0.0000     0.0000     0.0000    13.0000     4.0000     4.0000    12.0000     0.0000     0.0000   140.5490   -78.9019     3.5000     0.0000     0.0000     0.0000     0.0000     0.0000     0.0000     0.0000     0.0000     0.0000     0.0000     0.0000     0.0000     0.0000     0.0000     0.0000     0.0000     0.3240     0.3240     0.1342     4.8200     4.5000    39.9998     0.0000    40.0000    39.9462    40.000
      3     0.6000     0.3600      0.000      0.000      0.000   1980.000    97.8318   142.3070   -75.3860     0.4200    -1.0000    28.3760    -0.0025    22.9296     0.0000     0.0000     0.0000     0.0000     0.0000     0.0000    13.0000     4.0000     4.0000    12.0000     0.0000     0.0000   140.5490   -78.9019     3.5000     0.0000     0.0000     0.0000     0.0000     0.0000     0.0000     0.0000     0.0000     0.0000     0.0000     0.0000     0.0000     0.0000     0.0000     0.0000     0.0000     0.3231     0.3231     0.1387     4.8600     4.5000    39.9993     0.0000    40.0000    39.9733    40.000
# Sum of Counts = 303
# Center of Mass = 0.294917+/-0.023986
# Full Width Half-Maximum = 0.038687+/-0.032851
# 10:27:55 AM  4/18/2024   scan stopped!!
