# scan = 205
# date = 5/3/2024
# time = 8:20:54 AM
# proposal = 32275
# experiment = Low Temperature Magnetic Structure of CeCl3
# experiment_number = 1017
# command = scan h 0.6666 k 0.6666 l 0.46 0.54 0.0025 e 0 preset mcu 15
# builtin_command = scan h 0.6666 k 0.6666 l 0.46 0.54 0.0025 e 0 preset mcu 15
# users = Adam Aczel, David Mandrus, Matthew Cothrine, Stephen Nagler
# local_contact = A. Aczel
# scan_title = CeCl3, (2/3 2/3 1/2) L-scan, T = 68 mK
# monochromator = PG002
# analyzer = Pg002
# sense = +-+
# collimation = 40-40-40-80
# samplename = CeCl3
# sampletype = crystal
# samplemosaic = 30.000000
# latticeconstants = 7.432407,7.432407,4.311433,90.000000,90.000000,120.000000
# ubmatrix = -0.032121,-0.030765,0.225510,-0.128749,-0.132815,-0.054135,0.080800,-0.074501,0.003386
# mode = 0
# plane_normal = -0.008727,0.026172,0.999619
# ubconf = UB01May2024_120038PM.ini
# preset_type = normal 
# preset_channel = mcu
# preset_value = 15.000000
# def_x = l
# def_y = detector
# col_headers = 
#   Pt.          h          k          l          e       time   detector    monitor        mcu         m2         s1         s2        sgl        sgu   slitb_bt   slitb_lf   slitb_rt   slitb_tp   slita_bt   slita_lf   slita_rt   slita_tp        stl        stu         sz         a1         a2          q         ei         ef        vti     sample       temp dr_tsample    dr_temp
      1     0.6665     0.6665     0.4599     0.0002     15.347    639.000 146287.000     15.000    41.5367    58.3968   -28.7496     0.5007     1.5000    25.0000     5.0000     8.0000    25.0000    25.0000     8.0000     5.0000    25.0000     5.0000    -5.0000     0.0024    20.7712    41.5370     1.3112    14.4503    14.4501     1.6793     0.0000     1.0000     0.0678     0.068
      2     0.6666     0.6666     0.4625     0.0002     15.379    674.000 146287.000     15.000    41.5367    58.2376   -28.7940     0.5007     1.5000    25.0000     5.0000     8.0000    25.0000    25.0000     8.0000     5.0000    25.0000     5.0000    -5.0000     0.0024    20.7712    41.5370     1.3132    14.4503    14.4501     1.6794     0.0000     1.0000     0.0678     0.068
      3     0.6666     0.6666     0.4650     0.0002     15.363    688.000 146287.000     15.000    41.5367    58.0806   -28.8358     0.5007     1.5000    25.0000     5.0000     8.0000    25.0000    25.0000     8.0000     5.0000    25.0000     5.0000    -5.0000     0.0024    20.7712    41.5370     1.3151    14.4503    14.4501     1.6792     0.0000     1.0000     0.0674     0.068
      4     0.6666     0.6666     0.4675     0.0002     15.384    645.000 146287.000     15.000    41.5367    57.9230   -28.8781     0.5007     1.5000    25.0000     5.0000     8.0000    25.0000    25.0000     8.0000     5.0000    25.0000     5.0000    -5.0000     0.0023    20.7712    41.5370     1.3169    14.4503    14.4501     1.6793     0.0000     1.0000     0.0674     0.068
      5     0.6666     0.6666     0.4700     0.0002     15.349    665.000 146287.000     15.000    41.5367    57.7654   -28.9200     0.5007     1.5000    25.0000     5.0000     8.0000    25.0000    25.0000     8.0000     5.0000    25.0000     5.0000    -5.0000     0.0023    20.7712    41.5370     1.3188    14.4503    14.4501     1.6792     0.0000     1.0000     0.0674     0.068
      6     0.6666     0.6666     0.4725     0.0002     15.408    688.000 146287.000     15.000    41.5367    57.6099   -28.9645     0.5007     1.5000    25.0000     5.0000     8.0000    25.0000    25.0000     8.0000     5.0000    25.0000     5.0000    -5.0000     0.0023    20.7712    41.5370     1.3208    14.4503    14.4501     1.6793     0.0000     1.0000     0.0674     0.068
      7     0.6666     0.6666     0.4750     0.0002     15.309    650.000 146287.000     15.000    41.5367    57.4541   -29.0063     0.5007     1.5000    25.0000     5.0000     8.0000    25.0000    25.0000     8.0000     5.0000    25.0000     5.0000    -5.0000     0.0023    20.7712    41.5370     1.3227    14.4503    14.4501     1.6792     0.0000     1.0000     0.0681     0.068
      8     0.6666     0.6665     0.4775     0.0002     15.372    731.000 146287.000     15.000    41.5367    57.2988   -29.0472     0.5007     1.5000    25.0000     5.0000     8.0000    25.0000    25.0000     8.0000     5.0000    25.0000     5.0000    -5.0000     0.0023    20.7712    41.5370     1.3245    14.4503    14.4501     1.6793     0.0000     1.0000     0.0681     0.068
      9     0.6666     0.6666     0.4800     0.0002     15.349    711.000 146287.000     15.000    41.5367    57.1437   -29.0929     0.5007     1.5000    25.0000     5.0000     8.0000    25.0000    25.0000     8.0000     5.0000    25.0000     5.0000    -5.0000     0.0023    20.7712    41.5370     1.3265    14.4503    14.4501     1.6791     0.0000     1.0000     0.0681     0.068
     10     0.6666     0.6666     0.4825     0.0002     15.368    717.000 146287.000     15.000    41.5367    56.9880   -29.1357     0.5007     1.5000    25.0000     5.0000     8.0000    25.0000    25.0000     8.0000     5.0000    25.0000     5.0000    -5.0000     0.0023    20.7712    41.5370     1.3284    14.4503    14.4501     1.6793     0.0000     1.0000     0.0679     0.068
     11     0.6667     0.6666     0.4850     0.0002     15.366    795.000 146287.000     15.000    41.5367    56.8331   -29.1804     0.5007     1.5000    25.0000     5.0000     8.0000    25.0000    25.0000     8.0000     5.0000    25.0000     5.0000    -5.0000     0.0023    20.7712    41.5370     1.3304    14.4503    14.4501     1.6791     0.0000     1.0000     0.0679     0.068
     12     0.6668     0.6668     0.4876     0.0002     15.340    842.000 146287.000     15.000    41.5367    56.6777   -29.2295     0.5007     1.5000    25.0000     5.0000     8.0000    25.0000    25.0000     8.0000     5.0000    25.0000     5.0000    -5.0000     0.0023    20.7712    41.5370     1.3326    14.4503    14.4501     1.6792     0.0000     1.0000     0.0679     0.068
     13     0.6667     0.6666     0.4900     0.0002     15.377    835.000 146287.000     15.000    41.5367    56.5243   -29.2672     0.5007     1.5000    25.0000     5.0000     8.0000    25.0000    25.0000     8.0000     5.0000    25.0000     5.0000    -5.0000     0.0022    20.7712    41.5370     1.3343    14.4503    14.4501     1.6792     0.0000     1.0000     0.0679     0.068
     14     0.6665     0.6665     0.4924     0.0002     15.340    860.000 146287.000     15.000    41.5367    56.3713   -29.3037     0.5007     1.5000    25.0000     5.0000     8.0000    25.0000    25.0000     8.0000     5.0000    25.0000     5.0000    -5.0000     0.0023    20.7712    41.5370     1.3359    14.4503    14.4501     1.6793     0.0000     1.0000     0.0681     0.068
     15     0.6666     0.6666     0.4950     0.0002     15.374   1042.000 146287.000     15.000    41.5367    56.2174   -29.3523     0.5007     1.5000    25.0000     5.0000     8.0000    25.0000    25.0000     8.0000     5.0000    25.0000     5.0000    -5.0000     0.0023    20.7712    41.5370     1.3381    14.4503    14.4501     1.6792     0.0000     1.0000     0.0681     0.068
     16     0.6666     0.6666     0.4975     0.0002     15.352   1502.000 146287.000     15.000    41.5367    56.0643   -29.3985     0.5007     1.5000    25.0000     5.0000     8.0000    25.0000    25.0000     8.0000     5.0000    25.0000     5.0000    -5.0000     0.0022    20.7712    41.5370     1.3402    14.4503    14.4501     1.6793     0.0000     1.0000     0.0681     0.068
     17     0.6667     0.6666     0.5000     0.0002     15.375   2011.000 146287.000     15.000    41.5367    55.9106   -29.4435     0.5007     1.5000    25.0000     5.0000     8.0000    25.0000    25.0000     8.0000     5.0000    25.0000     5.0000    -5.0000     0.0022    20.7712    41.5370     1.3422    14.4503    14.4501     1.6793     0.0000     1.0000     0.0679     0.068
     18     0.6666     0.6666     0.5025     0.0002     15.348   2001.000 146287.000     15.000    41.5367    55.7579   -29.4866     0.5007     1.5000    25.0000     5.0000     8.0000    25.0000    25.0000     8.0000     5.0000    25.0000     5.0000    -5.0000     0.0022    20.7712    41.5370     1.3441    14.4503    14.4501     1.6792     0.0000     1.0000     0.0679     0.068
     19     0.6666     0.6666     0.5050     0.0002     15.303   1331.000 146287.000     15.000    41.5367    55.6051   -29.5321     0.5007     1.5000    25.0000     5.0000     8.0000    25.0000    25.0000     8.0000     5.0000    25.0000     5.0000    -5.0000     0.0022    20.7712    41.5370     1.3461    14.4503    14.4501     1.6793     0.0000     1.0000     0.0679     0.068
     20     0.6666     0.6666     0.5075     0.0002     15.331   1006.000 146287.000     15.000    41.5367    55.4541   -29.5757     0.5007     1.5000    25.0000     5.0000     8.0000    25.0000    25.0000     8.0000     5.0000    25.0000     5.0000    -5.0000     0.0022    20.7712    41.5370     1.3481    14.4503    14.4501     1.6792     0.0000     1.0000     0.0679     0.068
     21     0.6666     0.6666     0.5100     0.0002     15.290    914.000 146287.000     15.000    41.5367    55.3027   -29.6215     0.5007     1.5000    25.0000     5.0000     8.0000    25.0000    25.0000     8.0000     5.0000    25.0000     5.0000    -5.0000     0.0022    20.7712    41.5370     1.3501    14.4503    14.4501     1.6793     0.0000     1.0000     0.0682     0.068
     22     0.6666     0.6666     0.5125     0.0002     15.384    841.000 146287.000     15.000    41.5367    55.1508   -29.6647     0.5007     1.5001    25.0000     5.0000     8.0000    25.0000    25.0000     8.0000     5.0000    25.0000     5.0000    -5.0000     0.0022    20.7712    41.5370     1.3520    14.4503    14.4501     1.6793     0.0000     1.0000     0.0682     0.068
     23     0.6666     0.6666     0.5150     0.0002     15.387    781.000 146287.000     15.000    41.5367    54.9996   -29.7094     0.5007     1.5001    25.0000     5.0000     8.0000    25.0000    25.0000     8.0000     5.0000    25.0000     5.0000    -5.0000     0.0022    20.7712    41.5370     1.3540    14.4503    14.4501     1.6793     0.0000     1.0000     0.0682     0.068
     24     0.6667     0.6666     0.5175     0.0002     15.348    769.000 146287.000     15.000    41.5367    54.8486   -29.7578     0.5007     1.5001    25.0000     5.0000     8.0000    25.0000    25.0000     8.0000     5.0000    25.0000     5.0000    -5.0000     0.0023    20.7712    41.5370     1.3562    14.4503    14.4501     1.6792     0.0000     1.0000     0.0681     0.068
     25     0.6665     0.6665     0.5199     0.0002     15.380    689.000 146287.000     15.000    41.5367    54.6977   -29.7967     0.5007     1.5001    25.0000     5.0000     8.0000    25.0000    25.0000     8.0000     5.0000    25.0000     5.0000    -5.0000     0.0022    20.7712    41.5370     1.3579    14.4503    14.4501     1.6793     0.0000     1.0000     0.0681     0.068
     26     0.6665     0.6665     0.5225     0.0002     15.362    695.000 146287.000     15.000    41.5367    54.5473   -29.8446     0.5007     1.5001    25.0000     5.0000     8.0000    25.0000    25.0000     8.0000     5.0000    25.0000     5.0000    -5.0000     0.0023    20.7712    41.5370     1.3600    14.4503    14.4501     1.6793     0.0000     1.0000     0.0681     0.068
     27     0.6666     0.6665     0.5250     0.0002     15.349    710.000 146287.000     15.000    41.5367    54.3986   -29.8915     0.5007     1.5001    25.0000     5.0000     8.0000    25.0000    25.0000     8.0000     5.0000    25.0000     5.0000    -5.0000     0.0022    20.7712    41.5370     1.3621    14.4503    14.4501     1.6792     0.0000     1.0000     0.0681     0.068
     28     0.6666     0.6666     0.5275     0.0002     15.340    733.000 146287.000     15.000    41.5367    54.2487   -29.9381     0.5007     1.5001    25.0000     5.0000     8.0000    25.0000    25.0000     8.0000     5.0000    25.0000     5.0000    -5.0000     0.0022    20.7711    41.5370     1.3642    14.4503    14.4501     1.6793     0.0000     1.0000     0.0681     0.068
     29     0.6666     0.6666     0.5300     0.0002     15.362    682.000 146287.000     15.000    41.5367    54.0998   -29.9843     0.5007     1.5001    25.0000     5.0000     8.0000    25.0000    25.0000     8.0000     5.0000    25.0000     5.0000    -5.0000     0.0022    20.7711    41.5370     1.3663    14.4503    14.4501     1.6794     0.0000     1.0000     0.0681     0.068
     30     0.6666     0.6666     0.5325     0.0002     15.369    673.000 146287.000     15.000    41.5367    53.9500   -30.0321     0.5007     1.5001    25.0000     5.0000     8.0000    25.0000    25.0000     8.0000     5.0000    25.0000     5.0000    -5.0000     0.0023    20.7712    41.5370     1.3684    14.4503    14.4501     1.6792     0.0000     1.0000     0.0681     0.068
     31     0.6666     0.6666     0.5350     0.0002     15.326    683.000 146287.000     15.000    41.5367    53.8008   -30.0781     0.5007     1.5001    25.0000     5.0000     8.0000    25.0000    25.0000     8.0000     5.0000    25.0000     5.0000    -5.0000     0.0023    20.7711    41.5370     1.3704    14.4503    14.4501     1.6793     0.0000     1.0000     0.0679     0.068
     32     0.6666     0.6666     0.5375     0.0002     15.295    646.000 146287.000     15.000    41.5367    53.6526   -30.1245     0.5007     1.5001    25.0000     5.0000     8.0000    25.0000    25.0000     8.0000     5.0000    25.0000     5.0000    -5.0000     0.0022    20.7711    41.5370     1.3725    14.4503    14.4501     1.6794     0.0000     1.0000     0.0679     0.068
     33     0.6666     0.6666     0.5400     0.0002     15.323    661.000 146287.000     15.000    41.5367    53.5047   -30.1725     0.5007     1.5001    25.0000     5.0000     8.0000    25.0000    25.0000     8.0000     5.0000    25.0000     5.0000    -5.0000     0.0023    20.7711    41.5370     1.3746    14.4503    14.4501     1.6790     0.0000     1.0000     0.0679     0.068
# Sum of Counts = 28510
# Center of Mass = 0.500270+/-0.004192
# Full Width Half-Maximum = 0.042477+/-0.001326
# 8:32:03 AM  5/3/2024   scan completed.
