# scan = 122
# date = 5/2/2024
# time = 3:40:56 PM
# proposal = 32275
# experiment = Low Temperature Magnetic Structure of CeCl3
# experiment_number = 1017
# command = scanrel s1 1.5 -1.5 0.15
# builtin_command = scan s1 @(s1)+1.5 @(s1)+-1.5 0.150000
# users = Adam Aczel, David Mandrus, Matthew Cothrine, Stephen Nagler
# local_contact = A. Aczel
# scan_title = 1/3 1/3 1/2 check temperature effect
# monochromator = PG002
# analyzer = Pg002
# sense = +-+
# collimation = 40-40-40-80
# samplename = CeCl3
# sampletype = crystal
# samplemosaic = 30.000000
# latticeconstants = 7.432407,7.432407,4.311433,90.000000,90.000000,120.000000
# ubmatrix = -0.032121,-0.030765,0.225510,-0.128749,-0.132815,-0.054135,0.080800,-0.074501,0.003386
# mode = 0
# plane_normal = -0.008727,0.026172,0.999619
# ubconf = UB01May2024_120038PM.ini
# preset_type = normal 
# preset_channel = mcu
# preset_value = 20.000000
# def_x = s1
# def_y = detector
# col_headers = 
#   Pt.         s1       time   detector    monitor        mcu         m2         s2        sgl        sgu   slitb_bt   slitb_lf   slitb_rt   slitb_tp   slita_bt   slita_lf   slita_rt   slita_tp        stl        stu         sz         a1         a2          q          h          k          l         ei         ef          e        vti     sample       temp dr_tsample    dr_temp
      1    42.6924     20.426   1066.000 195049.000     20.000    41.5367   -20.0859     0.5006     1.5001    25.0000     5.0000     8.0000    25.0000    25.0000     8.0000     5.0000    25.0000     5.0000    -5.0000     0.0048    20.7716    41.5369     0.9210     0.3445     0.3444     0.4896    14.4503    14.4501     0.0002     1.6873     0.0000     1.0000     0.0510     0.000
      2    42.5417     20.381   1039.000 195049.000     20.000    41.5367   -20.0859     0.5007     1.5001    25.0000     5.0000     8.0000    25.0000    25.0000     8.0000     5.0000    25.0000     5.0000    -5.0000     0.0047    20.7716    41.5369     0.9210     0.3433     0.3433     0.4907    14.4503    14.4501     0.0002     1.6874     0.0000     1.0000     0.0510     0.000
      3    42.3914     20.366   1095.000 195049.000     20.000    41.5367   -20.0859     0.5007     1.5001    25.0000     5.0000     8.0000    25.0000    25.0000     8.0000     5.0000    25.0000     5.0000    -5.0000     0.0047    20.7716    41.5369     0.9210     0.3422     0.3422     0.4917    14.4503    14.4501     0.0002     1.6873     0.0000     1.0000     0.0514     0.000
      4    42.2421     20.362   1098.000 195049.000     20.000    41.5367   -20.0859     0.5007     1.5001    25.0000     5.0000     8.0000    25.0000    25.0000     8.0000     5.0000    25.0000     5.0000    -5.0000     0.0046    20.7716    41.5369     0.9210     0.3411     0.3411     0.4927    14.4503    14.4501     0.0002     1.6873     0.0000     1.0000     0.0514     0.000
      5    42.0915     20.357   1099.000 195049.000     20.000    41.5367   -20.0859     0.5007     1.5001    25.0000     5.0000     8.0000    25.0000    25.0000     8.0000     5.0000    25.0000     5.0000    -5.0000     0.0047    20.7716    41.5369     0.9210     0.3400     0.3400     0.4938    14.4503    14.4501     0.0002     1.6872     0.0000     1.0000     0.0515     0.000
      6    41.9414     20.433   1102.000 195049.000     20.000    41.5367   -20.0859     0.5007     1.5001    25.0000     5.0000     8.0000    25.0000    25.0000     8.0000     5.0000    25.0000     5.0000    -5.0000     0.0046    20.7716    41.5369     0.9210     0.3389     0.3389     0.4948    14.4503    14.4501     0.0002     1.6874     0.0000     1.0000     0.0515     0.000
      7    41.7904     20.474   1245.000 195049.000     20.000    41.5367   -20.0859     0.5007     1.5001    25.0000     5.0000     8.0000    25.0000    25.0000     8.0000     5.0000    25.0000     5.0000    -5.0000     0.0046    20.7716    41.5369     0.9210     0.3378     0.3378     0.4958    14.4503    14.4501     0.0002     1.6875     0.0000     1.0000     0.0515     0.000
      8    41.6409     20.428   1422.000 195049.000     20.000    41.5367   -20.0859     0.5007     1.5001    25.0000     5.0000     8.0000    25.0000    25.0000     8.0000     5.0000    25.0000     5.0000    -5.0000     0.0046    20.7716    41.5369     0.9210     0.3367     0.3366     0.4969    14.4503    14.4501     0.0002     1.6876     0.0000     1.0000     0.0515     0.000
      9    41.4912     20.408   2998.000 195049.000     20.000    41.5367   -20.0859     0.5007     1.5001    25.0000     5.0000     8.0000    25.0000    25.0000     8.0000     5.0000    25.0000     5.0000    -5.0000     0.0046    20.7716    41.5369     0.9210     0.3355     0.3355     0.4979    14.4503    14.4501     0.0002     1.6876     0.0000     1.0000     0.0515     0.000
     10    41.3418     20.367   5620.000 195049.000     20.000    41.5367   -20.0859     0.5007     1.5001    25.0000     5.0000     8.0000    25.0000    25.0000     8.0000     5.0000    25.0000     5.0000    -5.0000     0.0046    20.7716    41.5369     0.9210     0.3344     0.3344     0.4989    14.4503    14.4501     0.0002     1.6876     0.0000     1.0000     0.0515     0.000
     11    41.1916     20.432   7345.000 195049.000     20.000    41.5367   -20.0859     0.5007     1.5001    25.0000     5.0000     8.0000    25.0000    25.0000     8.0000     5.0000    25.0000     5.0000    -5.0000     0.0045    20.7716    41.5369     0.9210     0.3333     0.3333     0.4999    14.4503    14.4501     0.0002     1.6877     0.0000     1.0000     0.0517     0.000
     12    41.0417     20.430   7226.000 195049.000     20.000    41.5367   -20.0859     0.5007     1.5001    25.0000     5.0000     8.0000    25.0000    25.0000     8.0000     5.0000    25.0000     5.0000    -5.0000     0.0045    20.7716    41.5369     0.9210     0.3322     0.3321     0.5009    14.4503    14.4501     0.0002     1.6877     0.0000     1.0000     0.0517     0.000
     13    40.8908     20.387   5333.000 195049.000     20.000    41.5367   -20.0859     0.5007     1.5001    25.0000     5.0000     8.0000    25.0000    25.0000     8.0000     5.0000    25.0000     5.0000    -5.0000     0.0045    20.7716    41.5369     0.9210     0.3310     0.3310     0.5019    14.4503    14.4501     0.0002     1.6875     0.0000     1.0000     0.0507     0.000
     14    40.7406     20.409   2389.000 195049.000     20.000    41.5367   -20.0859     0.5007     1.5001    25.0000     5.0000     8.0000    25.0000    25.0000     8.0000     5.0000    25.0000     5.0000    -5.0000     0.0045    20.7716    41.5369     0.9210     0.3299     0.3299     0.5029    14.4503    14.4501     0.0002     1.6878     0.0000     1.0000     0.0507     0.000
     15    40.5907     20.414   1293.000 195049.000     20.000    41.5367   -20.0859     0.5007     1.5001    25.0000     5.0000     8.0000    25.0000    25.0000     8.0000     5.0000    25.0000     5.0000    -5.0000     0.0045    20.7716    41.5369     0.9210     0.3288     0.3287     0.5039    14.4503    14.4501     0.0002     1.6879     0.0000     1.0000     0.0507     0.000
     16    40.4416     20.356   1213.000 195049.000     20.000    41.5367   -20.0859     0.5007     1.5001    25.0000     5.0000     8.0000    25.0000    25.0000     8.0000     5.0000    25.0000     5.0000    -5.0000     0.0045    20.7716    41.5369     0.9210     0.3276     0.3276     0.5049    14.4503    14.4501     0.0002     1.6879     0.0000     1.0000     0.0504     0.000
     17    40.2916     20.472   1151.000 195049.000     20.000    41.5367   -20.0859     0.5007     1.5001    25.0000     5.0000     8.0000    25.0000    25.0000     8.0000     5.0000    25.0000     5.0000    -5.0000     0.0045    20.7716    41.5369     0.9210     0.3265     0.3265     0.5059    14.4503    14.4501     0.0002     1.6880     0.0000     1.0000     0.0504     0.000
     18    40.1419     20.455   1117.000 195049.000     20.000    41.5367   -20.0859     0.5007     1.5001    25.0000     5.0000     8.0000    25.0000    25.0000     8.0000     5.0000    25.0000     5.0000    -5.0000     0.0045    20.7716    41.5369     0.9210     0.3253     0.3253     0.5069    14.4503    14.4501     0.0002     1.6879     0.0000     1.0000     0.0499     0.000
     19    39.9913     20.459   1036.000 195049.000     20.000    41.5367   -20.0859     0.5007     1.5001    25.0000     5.0000     8.0000    25.0000    25.0000     8.0000     5.0000    25.0000     5.0000    -5.0000     0.0045    20.7716    41.5369     0.9210     0.3242     0.3242     0.5079    14.4503    14.4501     0.0002     1.6879     0.0000     1.0000     0.0499     0.000
     20    39.8409     20.322   1104.000 195049.000     20.000    41.5367   -20.0859     0.5007     1.5001    25.0000     5.0000     8.0000    25.0000    25.0000     8.0000     5.0000    25.0000     5.0000    -5.0000     0.0045    20.7716    41.5369     0.9210     0.3230     0.3230     0.5089    14.4503    14.4501     0.0002     1.6881     0.0000     1.0000     0.0499     0.000
     21    39.6903     20.454   1103.000 195049.000     20.000    41.5367   -20.0859     0.5007     1.5001    25.0000     5.0000     8.0000    25.0000    25.0000     8.0000     5.0000    25.0000     5.0000    -5.0000     0.0045    20.7716    41.5369     0.9210     0.3219     0.3219     0.5099    14.4503    14.4501     0.0002     1.6881     0.0000     1.0000     0.0498     0.000
# Sum of Counts = 48094
# Center of Mass = 41.157527+/-0.265427
# Full Width Half-Maximum = 1.293011+/-0.088099
# 3:48:40 PM  5/2/2024   scan completed.
