# scan = 278
# date = 5/3/2024
# time = 7:26:28 PM
# proposal = 32275
# experiment = Low Temperature Magnetic Structure of CeCl3
# experiment_number = 1017
# command = scanrel s1 1.5 -1.5 0.15 e 0 preset mcu 10
# builtin_command = scan s1 @(s1)+1.5 @(s1)+-1.5 0.150000
# users = Adam Aczel, David Mandrus, Matthew Cothrine, Stephen Nagler
# local_contact = A. Aczel
# scan_title = final scans of 1/3 1/3 1/2 while cooling at end of cycle
# monochromator = PG002
# analyzer = Pg002
# sense = +-+
# collimation = 40-40-40-80
# samplename = CeCl3
# sampletype = crystal
# samplemosaic = 30.000000
# latticeconstants = 7.432407,7.432407,4.311433,90.000000,90.000000,120.000000
# ubmatrix = -0.032121,-0.030765,0.225510,-0.128749,-0.132815,-0.054135,0.080800,-0.074501,0.003386
# mode = 0
# plane_normal = -0.008727,0.026172,0.999619
# ubconf = UB01May2024_120038PM.ini
# preset_type = normal 
# preset_channel = mcu
# preset_value = 10.000000
# def_x = s1
# def_y = detector
# col_headers = 
#   Pt.         s1       time   detector    monitor        mcu         m2         s2        sgl        sgu   slitb_bt   slitb_lf   slitb_rt   slitb_tp   slita_bt   slita_lf   slita_rt   slita_tp        stl        stu         sz         a1         a2          q          h          k          l         ei         ef          e        vti     sample       temp dr_tsample    dr_temp
      1    42.6398     10.257    560.000  97525.000     10.000    41.5367   -20.0814     0.5007     1.5000    25.0000     5.0000     8.0000    25.0000    25.0000     8.0000     5.0000    25.0000     5.0000    -5.0000     0.0037    20.7715    41.5369     0.9208     0.3440     0.3440     0.4899    14.4503    14.4502     0.0001     1.6777     0.0000     1.0000     0.0499     0.040
      2    42.4886     10.247    581.000  97525.000     10.000    41.5367   -20.0814     0.5007     1.5000    25.0000     5.0000     8.0000    25.0000    25.0000     8.0000     5.0000    25.0000     5.0000    -5.0000     0.0036    20.7715    41.5369     0.9208     0.3429     0.3428     0.4909    14.4503    14.4502     0.0001     1.6775     0.0000     1.0000     0.0499     0.040
      3    42.3391     10.255    570.000  97525.000     10.000    41.5367   -20.0814     0.5007     1.5000    25.0000     5.0000     8.0000    25.0000    25.0000     8.0000     5.0000    25.0000     5.0000    -5.0000     0.0035    20.7715    41.5369     0.9208     0.3418     0.3417     0.4920    14.4503    14.4502     0.0001     1.6777     0.0000     1.0000     0.0499     0.040
      4    42.1892     10.248    538.000  97525.000     10.000    41.5367   -20.0814     0.5007     1.5000    25.0000     5.0000     8.0000    25.0000    25.0000     8.0000     5.0000    25.0000     5.0000    -5.0000     0.0034    20.7715    41.5369     0.9208     0.3406     0.3406     0.4930    14.4503    14.4502     0.0001     1.6776     0.0000     1.0000     0.0499     0.040
      5    42.0402     10.223    598.000  97525.000     10.000    41.5367   -20.0814     0.5007     1.5000    25.0000     5.0000     8.0000    25.0000    25.0000     8.0000     5.0000    25.0000     5.0000    -5.0000     0.0034    20.7715    41.5369     0.9208     0.3395     0.3395     0.4940    14.4503    14.4502     0.0001     1.6776     0.0000     1.0000     0.0499     0.040
      6    41.8884     10.241    634.000  97525.000     10.000    41.5367   -20.0814     0.5007     1.5000    25.0000     5.0000     8.0000    25.0000    25.0000     8.0000     5.0000    25.0000     5.0000    -5.0000     0.0034    20.7715    41.5369     0.9208     0.3384     0.3384     0.4951    14.4503    14.4502     0.0001     1.6774     0.0000     1.0000     0.0501     0.040
      7    41.7385     10.182    575.000  97525.000     10.000    41.5367   -20.0814     0.5007     1.5000    25.0000     5.0000     8.0000    25.0000    25.0000     8.0000     5.0000    25.0000     5.0000    -5.0000     0.0033    20.7715    41.5369     0.9208     0.3373     0.3373     0.4961    14.4503    14.4502     0.0001     1.6774     0.0000     1.0000     0.0501     0.040
      8    41.5894     10.246    612.000  97525.000     10.000    41.5367   -20.0814     0.5007     1.5000    25.0000     5.0000     8.0000    25.0000    25.0000     8.0000     5.0000    25.0000     5.0000    -5.0000     0.0033    20.7716    41.5369     0.9208     0.3362     0.3362     0.4971    14.4503    14.4502     0.0001     1.6774     0.0000     1.0000     0.0501     0.040
      9    41.4258     10.280    851.000  97525.000     10.000    41.5367   -20.0814     0.5007     1.5000    25.0000     5.0000     8.0000    25.0000    25.0000     8.0000     5.0000    25.0000     5.0000    -5.0000     0.0033    20.7715    41.5369     0.9208     0.3350     0.3349     0.4982    14.4503    14.4502     0.0001     1.6774     0.0000     1.0000     0.0501     0.040
     10    41.2877     10.250   1681.000  97525.000     10.000    41.5367   -20.0814     0.5007     1.5000    25.0000     5.0000     8.0000    25.0000    25.0000     8.0000     5.0000    25.0000     5.0000    -5.0000     0.0033    20.7715    41.5369     0.9208     0.3339     0.3339     0.4992    14.4503    14.4502     0.0001     1.6774     0.0000     1.0000     0.0501     0.040
     11    41.1392     10.210   2496.000  97525.000     10.000    41.5367   -20.0814     0.5007     1.5000    25.0000     5.0000     8.0000    25.0000    25.0000     8.0000     5.0000    25.0000     5.0000    -5.0000     0.0033    20.7715    41.5369     0.9208     0.3328     0.3328     0.5002    14.4503    14.4502     0.0001     1.6776     0.0000     1.0000     0.0499     0.040
     12    40.9883     10.217   1780.000  97525.000     10.000    41.5367   -20.0814     0.5007     1.5000    25.0000     5.0000     8.0000    25.0000    25.0000     8.0000     5.0000    25.0000     5.0000    -5.0000     0.0033    20.7715    41.5369     0.9208     0.3317     0.3316     0.5012    14.4503    14.4502     0.0001     1.6775     0.0000     1.0000     0.0499     0.040
     13    40.8417     10.280    882.000  97525.000     10.000    41.5367   -20.0814     0.5007     1.5000    25.0000     5.0000     8.0000    25.0000    25.0000     8.0000     5.0000    25.0000     5.0000    -5.0000     0.0033    20.7715    41.5369     0.9208     0.3306     0.3305     0.5022    14.4503    14.4502     0.0001     1.6775     0.0000     1.0000     0.0499     0.040
     14    40.6887     10.257    647.000  97525.000     10.000    41.5367   -20.0814     0.5007     1.5000    25.0000     5.0000     8.0000    25.0000    25.0000     8.0000     5.0000    25.0000     5.0000    -5.0000     0.0032    20.7715    41.5369     0.9208     0.3294     0.3294     0.5032    14.4503    14.4502     0.0001     1.6774     0.0000     1.0000     0.0499     0.040
     15    40.5393     10.228    637.000  97525.000     10.000    41.5367   -20.0814     0.5007     1.5000    25.0000     5.0000     8.0000    25.0000    25.0000     8.0000     5.0000    25.0000     5.0000    -5.0000     0.0033    20.7715    41.5369     0.9208     0.3283     0.3282     0.5042    14.4503    14.4502     0.0001     1.6775     0.0000     1.0000     0.0499     0.040
     16    40.3935     10.295    596.000  97525.000     10.000    41.5367   -20.0814     0.5007     1.5000    25.0000     5.0000     8.0000    25.0000    25.0000     8.0000     5.0000    25.0000     5.0000    -5.0000     0.0032    20.7715    41.5369     0.9208     0.3272     0.3271     0.5052    14.4503    14.4502     0.0001     1.6773     0.0000     1.0000     0.0498     0.040
     17    40.2392     10.301    633.000  97525.000     10.000    41.5367   -20.0814     0.5007     1.5000    25.0000     5.0000     8.0000    25.0000    25.0000     8.0000     5.0000    25.0000     5.0000    -5.0000     0.0032    20.7715    41.5369     0.9208     0.3260     0.3260     0.5062    14.4503    14.4502     0.0001     1.6774     0.0000     1.0000     0.0498     0.040
     18    40.0926     10.289    562.000  97525.000     10.000    41.5367   -20.0814     0.5007     1.5000    25.0000     5.0000     8.0000    25.0000    25.0000     8.0000     5.0000    25.0000     5.0000    -5.0000     0.0032    20.7715    41.5369     0.9208     0.3249     0.3249     0.5071    14.4503    14.4502     0.0001     1.6775     0.0000     1.0000     0.0498     0.040
     19    39.9391     10.233    547.000  97525.000     10.000    41.5367   -20.0814     0.5007     1.5001    25.0000     5.0000     8.0000    25.0000    25.0000     8.0000     5.0000    25.0000     5.0000    -5.0000     0.0032    20.7715    41.5369     0.9208     0.3237     0.3237     0.5081    14.4503    14.4502     0.0001     1.6774     0.0000     1.0000     0.0498     0.040
     20    39.7915     10.230    585.000  97525.000     10.000    41.5367   -20.0814     0.5007     1.5000    25.0000     5.0000     8.0000    25.0000    25.0000     8.0000     5.0000    25.0000     5.0000    -5.0000     0.0032    20.7715    41.5369     0.9208     0.3226     0.3225     0.5091    14.4503    14.4502     0.0001     1.6775     0.0000     1.0000     0.0498     0.040
     21    39.6361     10.255    570.000  97525.000     10.000    41.5367   -20.0814     0.5007     1.5000    25.0000     5.0000     8.0000    25.0000    25.0000     8.0000     5.0000    25.0000     5.0000    -5.0000     0.0032    20.7715    41.5369     0.9208     0.3214     0.3214     0.5101    14.4503    14.4502     0.0001     1.6775     0.0000     1.0000     0.0498     0.040
# Sum of Counts = 17135
# Center of Mass = 41.132900+/-0.444427
# Full Width Half-Maximum = 1.534580+/-0.165482
# 7:31:03 PM  5/3/2024   scan completed.
