# scan = 120
# date = 5/2/2024
# time = 3:24:21 PM
# proposal = 32275
# experiment = Low Temperature Magnetic Structure of CeCl3
# experiment_number = 1017
# command = scanrel s1 1.5 -1.5 0.15
# builtin_command = scan s1 @(s1)+1.5 @(s1)+-1.5 0.150000
# users = Adam Aczel, David Mandrus, Matthew Cothrine, Stephen Nagler
# local_contact = A. Aczel
# scan_title = 1/3 1/3 1/2 check temperature effect
# monochromator = PG002
# analyzer = Pg002
# sense = +-+
# collimation = 40-40-40-80
# samplename = CeCl3
# sampletype = crystal
# samplemosaic = 30.000000
# latticeconstants = 7.432407,7.432407,4.311433,90.000000,90.000000,120.000000
# ubmatrix = -0.032121,-0.030765,0.225510,-0.128749,-0.132815,-0.054135,0.080800,-0.074501,0.003386
# mode = 0
# plane_normal = -0.008727,0.026172,0.999619
# ubconf = UB01May2024_120038PM.ini
# preset_type = normal 
# preset_channel = mcu
# preset_value = 20.000000
# def_x = s1
# def_y = detector
# col_headers = 
#   Pt.         s1       time   detector    monitor        mcu         m2         s2        sgl        sgu   slitb_bt   slitb_lf   slitb_rt   slitb_tp   slita_bt   slita_lf   slita_rt   slita_tp        stl        stu         sz         a1         a2          q          h          k          l         ei         ef          e        vti     sample       temp dr_tsample    dr_temp
      1    42.6910     20.413   1096.000 195049.000     20.000    41.5367   -20.0857     0.5007     1.5001    25.0000     5.0000     8.0000    25.0000    25.0000     8.0000     5.0000    25.0000     5.0000    -5.0000     0.0048    20.7716    41.5369     0.9210     0.3444     0.3444     0.4896    14.4503    14.4501     0.0002     1.6876     0.0000     1.0000     0.0574     0.000
      2    42.5396     20.335   1134.000 195049.000     20.000    41.5367   -20.0857     0.5007     1.5001    25.0000     5.0000     8.0000    25.0000    25.0000     8.0000     5.0000    25.0000     5.0000    -5.0000     0.0047    20.7716    41.5369     0.9210     0.3433     0.3433     0.4907    14.4503    14.4501     0.0002     1.6863     0.0000     1.0000     0.0574     0.000
      3    42.3897     20.346   1084.000 195049.000     20.000    41.5367   -20.0857     0.5007     1.5001    25.0000     5.0000     8.0000    25.0000    25.0000     8.0000     5.0000    25.0000     5.0000    -5.0000     0.0046    20.7716    41.5369     0.9210     0.3422     0.3422     0.4917    14.4503    14.4501     0.0002     1.6856     0.0000     1.0000     0.0566     0.000
      4    42.2402     20.385   1098.000 195049.000     20.000    41.5367   -20.0857     0.5007     1.5001    25.0000     5.0000     8.0000    25.0000    25.0000     8.0000     5.0000    25.0000     5.0000    -5.0000     0.0047    20.7716    41.5369     0.9210     0.3411     0.3411     0.4927    14.4503    14.4501     0.0002     1.6850     0.0000     1.0000     0.0566     0.000
      5    42.0898     20.395   1162.000 195049.000     20.000    41.5367   -20.0858     0.5007     1.5001    25.0000     5.0000     8.0000    25.0000    25.0000     8.0000     5.0000    25.0000     5.0000    -5.0000     0.0046    20.7716    41.5369     0.9210     0.3400     0.3400     0.4938    14.4503    14.4501     0.0002     1.6847     0.0000     1.0000     0.0566     0.000
      6    41.9398     20.366   1177.000 195049.000     20.000    41.5367   -20.0858     0.5007     1.5001    25.0000     5.0000     8.0000    25.0000    25.0000     8.0000     5.0000    25.0000     5.0000    -5.0000     0.0046    20.7716    41.5369     0.9210     0.3389     0.3389     0.4948    14.4503    14.4501     0.0002     1.6846     0.0000     1.0000     0.0557     0.000
      7    41.7889     20.420   1547.000 195049.000     20.000    41.5367   -20.0858     0.5007     1.5001    25.0000     5.0000     8.0000    25.0000    25.0000     8.0000     5.0000    25.0000     5.0000    -5.0000     0.0046    20.7716    41.5369     0.9210     0.3378     0.3377     0.4959    14.4503    14.4501     0.0002     1.6845     0.0000     1.0000     0.0557     0.000
      8    41.6392     20.326   3092.000 195049.000     20.000    41.5367   -20.0858     0.5007     1.5001    25.0000     5.0000     8.0000    25.0000    25.0000     8.0000     5.0000    25.0000     5.0000    -5.0000     0.0045    20.7716    41.5369     0.9210     0.3366     0.3366     0.4969    14.4503    14.4501     0.0002     1.6845     0.0000     1.0000     0.0551     0.000
      9    41.4896     20.285   5098.000 195049.000     20.000    41.5367   -20.0858     0.5007     1.5001    25.0000     5.0000     8.0000    25.0000    25.0000     8.0000     5.0000    25.0000     5.0000    -5.0000     0.0045    20.7716    41.5369     0.9210     0.3355     0.3355     0.4979    14.4503    14.4501     0.0002     1.6846     0.0000     1.0000     0.0551     0.000
     10    41.3400     20.404   5989.000 195049.000     20.000    41.5367   -20.0858     0.5007     1.5001    25.0000     5.0000     8.0000    25.0000    25.0000     8.0000     5.0000    25.0000     5.0000    -5.0000     0.0046    20.7716    41.5369     0.9210     0.3344     0.3344     0.4989    14.4503    14.4501     0.0002     1.6846     0.0000     1.0000     0.0551     0.000
     11    41.1900     20.350   5780.000 195049.000     20.000    41.5367   -20.0858     0.5007     1.5001    25.0000     5.0000     8.0000    25.0000    25.0000     8.0000     5.0000    25.0000     5.0000    -5.0000     0.0046    20.7716    41.5369     0.9210     0.3333     0.3333     0.4999    14.4503    14.4501     0.0002     1.6846     0.0000     1.0000     0.0546     0.000
     12    41.0402     20.424   5929.000 195049.000     20.000    41.5367   -20.0858     0.5007     1.5001    25.0000     5.0000     8.0000    25.0000    25.0000     8.0000     5.0000    25.0000     5.0000    -5.0000     0.0046    20.7716    41.5369     0.9210     0.3321     0.3321     0.5009    14.4503    14.4501     0.0002     1.6845     0.0000     1.0000     0.0546     0.000
     13    40.8894     20.439   6055.000 195049.000     20.000    41.5367   -20.0858     0.5007     1.5001    25.0000     5.0000     8.0000    25.0000    25.0000     8.0000     5.0000    25.0000     5.0000    -5.0000     0.0046    20.7716    41.5369     0.9210     0.3310     0.3310     0.5019    14.4503    14.4501     0.0002     1.6848     0.0000     1.0000     0.0539     0.000
     14    40.7389     20.460   5017.000 195049.000     20.000    41.5367   -20.0858     0.5007     1.5001    25.0000     5.0000     8.0000    25.0000    25.0000     8.0000     5.0000    25.0000     5.0000    -5.0000     0.0045    20.7717    41.5369     0.9210     0.3299     0.3298     0.5030    14.4503    14.4501     0.0002     1.6849     0.0000     1.0000     0.0539     0.000
     15    40.5890     20.423   2171.000 195049.000     20.000    41.5367   -20.0858     0.5007     1.5001    25.0000     5.0000     8.0000    25.0000    25.0000     8.0000     5.0000    25.0000     5.0000    -5.0000     0.0046    20.7716    41.5369     0.9210     0.3287     0.3287     0.5039    14.4503    14.4501     0.0002     1.6850     0.0000     1.0000     0.0539     0.000
     16    40.4398     20.454   1254.000 195049.000     20.000    41.5367   -20.0858     0.5007     1.5001    25.0000     5.0000     8.0000    25.0000    25.0000     8.0000     5.0000    25.0000     5.0000    -5.0000     0.0046    20.7716    41.5369     0.9210     0.3276     0.3276     0.5049    14.4503    14.4501     0.0002     1.6851     0.0000     1.0000     0.0537     0.000
     17    40.2901     20.410   1170.000 195049.000     20.000    41.5367   -20.0858     0.5007     1.5001    25.0000     5.0000     8.0000    25.0000    25.0000     8.0000     5.0000    25.0000     5.0000    -5.0000     0.0046    20.7716    41.5369     0.9210     0.3265     0.3264     0.5059    14.4503    14.4501     0.0001     1.6851     0.0000     1.0000     0.0537     0.000
     18    40.1402     20.386   1206.000 195049.000     20.000    41.5367   -20.0858     0.5007     1.5001    25.0000     5.0000     8.0000    25.0000    25.0000     8.0000     5.0000    25.0000     5.0000    -5.0000     0.0045    20.7716    41.5369     0.9210     0.3253     0.3253     0.5069    14.4503    14.4501     0.0001     1.6852     0.0000     1.0000     0.0532     0.000
     19    39.9900     20.409   1058.000 195049.000     20.000    41.5367   -20.0858     0.5007     1.5001    25.0000     5.0000     8.0000    25.0000    25.0000     8.0000     5.0000    25.0000     5.0000    -5.0000     0.0045    20.7716    41.5369     0.9210     0.3242     0.3242     0.5079    14.4503    14.4501     0.0002     1.6853     0.0000     1.0000     0.0532     0.000
     20    39.8392     20.424   1072.000 195049.000     20.000    41.5367   -20.0858     0.5007     1.5001    25.0000     5.0000     8.0000    25.0000    25.0000     8.0000     5.0000    25.0000     5.0000    -5.0000     0.0046    20.7716    41.5369     0.9210     0.3230     0.3230     0.5089    14.4503    14.4501     0.0002     1.6854     0.0000     1.0000     0.0532     0.000
     21    39.6887     20.476   1088.000 195049.000     20.000    41.5367   -20.0858     0.5007     1.5001    25.0000     5.0000     8.0000    25.0000    25.0000     8.0000     5.0000    25.0000     5.0000    -5.0000     0.0045    20.7716    41.5369     0.9210     0.3219     0.3218     0.5099    14.4503    14.4501     0.0002     1.6855     0.0000     1.0000     0.0533     0.000
# Sum of Counts = 54277
# Center of Mass = 41.160731+/-0.249871
# Full Width Half-Maximum = 1.274249+/-0.087219
# 3:32:03 PM  5/2/2024   scan completed.
