# scan = 162
# date = 5/2/2024
# time = 11:02:31 PM
# proposal = 32275
# experiment = Low Temperature Magnetic Structure of CeCl3
# experiment_number = 1017
# command = scan h 0.62 0.70 0.0025 k 0.62 0.70 0.0025 l 0.5 e 0 preset mcu 15
# builtin_command = scan h 0.62 0.70 0.0025 k 0.62 0.70 0.0025 l 0.5 e 0 preset mcu 15
# users = Adam Aczel, David Mandrus, Matthew Cothrine, Stephen Nagler
# local_contact = A. Aczel
# scan_title = CeCl3, (1/3 1/3 1/2) HH-scan, T = 57 mK
# monochromator = PG002
# analyzer = Pg002
# sense = +-+
# collimation = 40-40-40-80
# samplename = CeCl3
# sampletype = crystal
# samplemosaic = 30.000000
# latticeconstants = 7.432407,7.432407,4.311433,90.000000,90.000000,120.000000
# ubmatrix = -0.032121,-0.030765,0.225510,-0.128749,-0.132815,-0.054135,0.080800,-0.074501,0.003386
# mode = 0
# plane_normal = -0.008727,0.026172,0.999619
# ubconf = UB01May2024_120038PM.ini
# preset_type = normal 
# preset_channel = mcu
# preset_value = 15.000000
# def_x = h
# def_y = detector
# col_headers = 
#   Pt.          h          k          l          e       time   detector    monitor        mcu         m2         s1         s2        sgl        sgu   slitb_bt   slitb_lf   slitb_rt   slitb_tp   slita_bt   slita_lf   slita_rt   slita_tp        stl        stu         sz         a1         a2          q         ei         ef        vti     sample       temp dr_tsample    dr_temp
      1     0.6198     0.6198     0.4999     0.0002     15.352    666.000 146287.000     15.000    41.5367    54.7248   -27.9680     0.5007     1.5000    25.0000     5.0000     8.0000    25.0000    25.0000     8.0000     5.0000    25.0000     5.0000    -5.0000     0.0024    20.7712    41.5370     1.2763    14.4503    14.4501     1.6801     0.0000     1.0000     0.0570     0.057
      2     0.6225     0.6225     0.5000     0.0002     15.317    664.000 146287.000     15.000    41.5367    54.7936   -28.0539     0.5007     1.5000    25.0000     5.0000     8.0000    25.0000    25.0000     8.0000     5.0000    25.0000     5.0000    -5.0000     0.0024    20.7712    41.5370     1.2801    14.4503    14.4501     1.6801     0.0000     1.0000     0.0570     0.057
      3     0.6250     0.6250     0.5000     0.0002     15.315    698.000 146287.000     15.000    41.5367    54.8628   -28.1303     0.5007     1.5000    25.0000     5.0000     8.0000    25.0000    25.0000     8.0000     5.0000    25.0000     5.0000    -5.0000     0.0024    20.7712    41.5370     1.2835    14.4503    14.4501     1.6799     0.0000     1.0000     0.0570     0.057
      4     0.6275     0.6274     0.4999     0.0002     15.337    742.000 146287.000     15.000    41.5367    54.9303   -28.2068     0.5007     1.5000    25.0000     5.0000     8.0000    25.0000    25.0000     8.0000     5.0000    25.0000     5.0000    -5.0000     0.0024    20.7712    41.5370     1.2870    14.4503    14.4501     1.6799     0.0000     1.0000     0.0572     0.057
      5     0.6300     0.6300     0.4999     0.0002     15.304    753.000 146287.000     15.000    41.5367    54.9984   -28.2858     0.5007     1.5000    25.0000     5.0000     8.0000    25.0000    25.0000     8.0000     5.0000    25.0000     5.0000    -5.0000     0.0024    20.7712    41.5370     1.2905    14.4503    14.4501     1.6798     0.0000     1.0000     0.0572     0.057
      6     0.6325     0.6325     0.4999     0.0002     15.298    733.000 146287.000     15.000    41.5367    55.0646   -28.3634     0.5007     1.5000    25.0000     5.0000     8.0000    25.0000    25.0000     8.0000     5.0000    25.0000     5.0000    -5.0000     0.0023    20.7712    41.5370     1.2940    14.4503    14.4501     1.6799     0.0000     1.0000     0.0572     0.057
      7     0.6350     0.6350     0.4999     0.0002     15.365    713.000 146287.000     15.000    41.5367    55.1307   -28.4420     0.5007     1.5000    25.0000     5.0000     8.0000    25.0000    25.0000     8.0000     5.0000    25.0000     5.0000    -5.0000     0.0023    20.7712    41.5370     1.2975    14.4503    14.4501     1.6795     0.0000     1.0000     0.0568     0.057
      8     0.6375     0.6375     0.5000     0.0002     15.389    719.000 146287.000     15.000    41.5367    55.1958   -28.5216     0.5007     1.5000    25.0000     5.0000     8.0000    25.0000    25.0000     8.0000     5.0000    25.0000     5.0000    -5.0000     0.0024    20.7712    41.5370     1.3010    14.4503    14.4501     1.6799     0.0000     1.0000     0.0568     0.057
      9     0.6400     0.6400     0.5000     0.0002     15.347    697.000 146287.000     15.000    41.5367    55.2610   -28.5997     0.5007     1.5000    25.0000     5.0000     8.0000    25.0000    25.0000     8.0000     5.0000    25.0000     5.0000    -5.0000     0.0023    20.7712    41.5370     1.3045    14.4503    14.4501     1.6798     0.0000     1.0000     0.0568     0.057
     10     0.6425     0.6425     0.5000     0.0002     15.381    730.000 146287.000     15.000    41.5367    55.3247   -28.6783     0.5007     1.5000    25.0000     5.0000     8.0000    25.0000    25.0000     8.0000     5.0000    25.0000     5.0000    -5.0000     0.0024    20.7712    41.5370     1.3080    14.4503    14.4501     1.6795     0.0000     1.0000     0.0568     0.057
     11     0.6450     0.6450     0.5000     0.0002     15.307    771.000 146287.000     15.000    41.5367    55.3887   -28.7570     0.5007     1.5000    25.0000     5.0000     8.0000    25.0000    25.0000     8.0000     5.0000    25.0000     5.0000    -5.0000     0.0024    20.7712    41.5370     1.3115    14.4503    14.4501     1.6798     0.0000     1.0000     0.0579     0.057
     12     0.6476     0.6475     0.5000     0.0002     15.321    747.000 146287.000     15.000    41.5367    55.4521   -28.8377     0.5007     1.5000    25.0000     5.0000     8.0000    25.0000    25.0000     8.0000     5.0000    25.0000     5.0000    -5.0000     0.0024    20.7712    41.5370     1.3151    14.4503    14.4501     1.6798     0.0000     1.0000     0.0579     0.057
     13     0.6500     0.6500     0.5000     0.0002     15.298    729.000 146287.000     15.000    41.5367    55.5136   -28.9144     0.5007     1.5000    25.0000     5.0000     8.0000    25.0000    25.0000     8.0000     5.0000    25.0000     5.0000    -5.0000     0.0023    20.7712    41.5370     1.3186    14.4503    14.4501     1.6795     0.0000     1.0000     0.0579     0.057
     14     0.6525     0.6525     0.5000     0.0002     15.324    793.000 146287.000     15.000    41.5367    55.5758   -28.9949     0.5007     1.5000    25.0000     5.0000     8.0000    25.0000    25.0000     8.0000     5.0000    25.0000     5.0000    -5.0000     0.0023    20.7712    41.5370     1.3222    14.4503    14.4501     1.6798     0.0000     1.0000     0.0579     0.057
     15     0.6550     0.6550     0.5000     0.0002     15.306    793.000 146287.000     15.000    41.5367    55.6368   -29.0738     0.5007     1.5000    25.0000     5.0000     8.0000    25.0000    25.0000     8.0000     5.0000    25.0000     5.0000    -5.0000     0.0024    20.7712    41.5370     1.3257    14.4503    14.4501     1.6797     0.0000     1.0000     0.0569     0.057
     16     0.6576     0.6576     0.5000     0.0002     15.348   1003.000 146287.000     15.000    41.5367    55.6976   -29.1542     0.5007     1.5000    25.0000     5.0000     8.0000    25.0000    25.0000     8.0000     5.0000    25.0000     5.0000    -5.0000     0.0024    20.7712    41.5370     1.3293    14.4503    14.4501     1.6798     0.0000     1.0000     0.0569     0.057
     17     0.6601     0.6600     0.5000     0.0002     15.306   1656.000 146287.000     15.000    41.5367    55.7572   -29.2330     0.5007     1.5000    25.0000     5.0000     8.0000    25.0000    25.0000     8.0000     5.0000    25.0000     5.0000    -5.0000     0.0024    20.7712    41.5370     1.3328    14.4503    14.4501     1.6797     0.0000     1.0000     0.0569     0.057
     18     0.6626     0.6625     0.5000     0.0002     15.341   3578.000 146287.000     15.000    41.5367    55.8161   -29.3127     0.5007     1.5000    25.0000     5.0000     8.0000    25.0000    25.0000     8.0000     5.0000    25.0000     5.0000    -5.0000     0.0024    20.7712    41.5370     1.3363    14.4503    14.4501     1.6798     0.0000     1.0000     0.0570     0.057
     19     0.6651     0.6651     0.5000     0.0002     15.395   5784.000 146287.000     15.000    41.5367    55.8746   -29.3929     0.5007     1.5000    25.0000     5.0000     8.0000    25.0000    25.0000     8.0000     5.0000    25.0000     5.0000    -5.0000     0.0024    20.7712    41.5370     1.3399    14.4503    14.4501     1.6798     0.0000     1.0000     0.0570     0.057
     20     0.6676     0.6676     0.5000     0.0002     15.328   5349.000 146287.000     15.000    41.5367    55.9336   -29.4721     0.5007     1.5000    25.0000     5.0000     8.0000    25.0000    25.0000     8.0000     5.0000    25.0000     5.0000    -5.0000     0.0024    20.7712    41.5370     1.3434    14.4503    14.4501     1.6798     0.0000     1.0000     0.0570     0.057
     21     0.6700     0.6700     0.5000     0.0002     15.302   3290.000 146287.000     15.000    41.5367    55.9915   -29.5507     0.5007     1.5000    25.0000     5.0000     8.0000    25.0000    25.0000     8.0000     5.0000    25.0000     5.0000    -5.0000     0.0024    20.7712    41.5370     1.3469    14.4503    14.4501     1.6797     0.0000     1.0000     0.0570     0.057
     22     0.6726     0.6725     0.5000     0.0002     15.394   1562.000 146287.000     15.000    41.5367    56.0491   -29.6306     0.5007     1.5000    25.0000     5.0000     8.0000    25.0000    25.0000     8.0000     5.0000    25.0000     5.0000    -5.0000     0.0024    20.7712    41.5370     1.3505    14.4503    14.4501     1.6797     0.0000     1.0000     0.0570     0.057
     23     0.6750     0.6750     0.5000     0.0002     15.315    988.000 146287.000     15.000    41.5367    56.1046   -29.7082     0.5007     1.5000    25.0000     5.0000     8.0000    25.0000    25.0000     8.0000     5.0000    25.0000     5.0000    -5.0000     0.0024    20.7712    41.5370     1.3540    14.4503    14.4501     1.6798     0.0000     1.0000     0.0570     0.057
     24     0.6775     0.6775     0.5000     0.0002     15.293    874.000 146287.000     15.000    41.5367    56.1612   -29.7902     0.5007     1.5000    25.0000     5.0000     8.0000    25.0000    25.0000     8.0000     5.0000    25.0000     5.0000    -5.0000     0.0024    20.7712    41.5370     1.3576    14.4503    14.4501     1.6797     0.0000     1.0000     0.0570     0.057
     25     0.6800     0.6800     0.4999     0.0002     15.348    828.000 146287.000     15.000    41.5367    56.2166   -29.8687     0.5007     1.5000    25.0000     5.0000     8.0000    25.0000    25.0000     8.0000     5.0000    25.0000     5.0000    -5.0000     0.0024    20.7712    41.5370     1.3611    14.4503    14.4501     1.6798     0.0000     1.0000     0.0570     0.057
     26     0.6825     0.6825     0.5000     0.0002     15.346    778.000 146287.000     15.000    41.5367    56.2716   -29.9498     0.5007     1.5000    25.0000     5.0000     8.0000    25.0000    25.0000     8.0000     5.0000    25.0000     5.0000    -5.0000     0.0024    20.7711    41.5370     1.3647    14.4503    14.4501     1.6797     0.0000     1.0000     0.0568     0.057
     27     0.6850     0.6850     0.4999     0.0002     15.282    790.000 146287.000     15.000    41.5367    56.3255   -30.0287     0.5007     1.5000    25.0000     5.0000     8.0000    25.0000    25.0000     8.0000     5.0000    25.0000     5.0000    -5.0000     0.0024    20.7712    41.5370     1.3682    14.4503    14.4501     1.6798     0.0000     1.0000     0.0568     0.057
     28     0.6875     0.6875     0.5000     0.0002     15.282    747.000 146287.000     15.000    41.5367    56.3793   -30.1102     0.5007     1.5000    25.0000     5.0000     8.0000    25.0000    25.0000     8.0000     5.0000    25.0000     5.0000    -5.0000     0.0024    20.7711    41.5370     1.3719    14.4503    14.4501     1.6796     0.0000     1.0000     0.0568     0.057
     29     0.6900     0.6900     0.5000     0.0002     15.289    736.000 146287.000     15.000    41.5367    56.4332   -30.1915     0.5007     1.5000    25.0000     5.0000     8.0000    25.0000    25.0000     8.0000     5.0000    25.0000     5.0000    -5.0000     0.0024    20.7712    41.5370     1.3755    14.4503    14.4501     1.6797     0.0000     1.0000     0.0571     0.057
     30     0.6925     0.6925     0.4999     0.0002     15.353    687.000 146287.000     15.000    41.5367    56.4854   -30.2705     0.5007     1.5000    25.0000     5.0000     8.0000    25.0000    25.0000     8.0000     5.0000    25.0000     5.0000    -5.0000     0.0024    20.7711    41.5370     1.3790    14.4503    14.4501     1.6797     0.0000     1.0000     0.0571     0.057
     31     0.6950     0.6950     0.5000     0.0002     15.415    737.000 146287.000     15.000    41.5367    56.5376   -30.3518     0.5007     1.5000    25.0000     5.0000     8.0000    25.0000    25.0000     8.0000     5.0000    25.0000     5.0000    -5.0000     0.0024    20.7712    41.5370     1.3826    14.4503    14.4501     1.6798     0.0000     1.0000     0.0571     0.057
     32     0.6975     0.6975     0.5000     0.0002     15.338    701.000 146287.000     15.000    41.5367    56.5890   -30.4323     0.5007     1.5000    25.0000     5.0000     8.0000    25.0000    25.0000     8.0000     5.0000    25.0000     5.0000    -5.0000     0.0024    20.7711    41.5370     1.3862    14.4503    14.4501     1.6797     0.0000     1.0000     0.0571     0.057
     33     0.7000     0.7000     0.5000     0.0002     15.396    695.000 146287.000     15.000    41.5367    56.6405   -30.5145     0.5007     1.5000    25.0000     5.0000     8.0000    25.0000    25.0000     8.0000     5.0000    25.0000     5.0000    -5.0000     0.0025    20.7712    41.5370     1.3898    14.4503    14.4501     1.6797     0.0000     1.0000     0.0569     0.057
# Sum of Counts = 41731
# Center of Mass = 0.662800+/-0.004589
# Full Width Half-Maximum = 0.036659+/-0.001296
# 11:13:24 PM  5/2/2024   scan completed.
