# scan = 3
# date = 9/19/2023
# time = 2:04:39 PM
# proposal = 30730
# experiment = Low Temperature Magnetic Structure of CeCl3
# experiment_number = 998
# command = th2th 1.5 -1.5 0.15
# builtin_command = scan s2 @(s2)+1.5 @(s2)+-1.5 0.150000 s1 @(s1)+(1.5/2) @(s1)+(-1.5/2) 0.075000
# users = Adam Aczel, David Mandrus, Matthew Cothrine, Stephen Nagler
# local_contact = A. Aczel
# scan_title = Align on (111) peak
# monochromator = PG002
# analyzer = Pg002
# sense = +-+
# collimation = 40-40-40-80
# samplename = CeBr3
# sampletype = crystal
# samplemosaic = 30.000000
# latticeconstants = 7.950000,7.950000,4.444000,90.000000,90.000000,120.000000
# ubmatrix = 0.125786,0.125786,-0.000000,0.000000,0.000000,0.225023,0.072623,-0.072623,0.000000
# mode = 0
# plane_normal = 0.000000,0.000000,1.000000
# ubconf = UB19Sep2023_95447AM.ini
# preset_type = normal 
# preset_channel = time
# preset_value = 1.000000
# def_x = s2
# def_y = detector
# col_headers = 
#   Pt.         s2         s1       time   detector    monitor        mcu         m2        sgl        sgu   slitb_bt   slitb_lf   slitb_rt   slitb_tp   slita_bt   slita_lf   slita_rt   slita_tp        stl        stu         sz         a1         a2          q          h          k          l         ei         ef          e        vti     sample       temp dr_tsample    dr_temp
      1   -45.8494   -12.8489      1.000     42.000   7304.000      1.059    41.5367     0.0003     0.0003    25.0000    15.0000    15.0000    25.0000    25.0000    15.0000    15.0000    25.0000    -0.0007     0.0000     0.0020    20.7738    41.5133     2.0578     1.2819     1.2819    -0.2537    14.4503    14.4658    -0.0156     1.8013     0.0000     1.0000     5.2118     5.147
      2   -45.9998   -12.9243      1.000     37.000   7465.000      1.082    41.5367     0.0003     0.0003    25.0000    15.0000    15.0000    25.0000    25.0000    15.0000    15.0000    25.0000    -0.0007     0.0000     0.0020    20.7737    41.5134     2.0642     1.2859     1.2859    -0.2545    14.4503    14.4658    -0.0155     1.8010     0.0000     1.0000     5.2118     5.147
      3   -46.1457   -12.9991      1.000     28.000   7418.000      1.075    41.5367     0.0003     0.0003    25.0000    15.0000    15.0000    25.0000    25.0000    15.0000    15.0000    25.0000    -0.0007     0.0000     0.0020    20.7738    41.5133     2.0704     1.2898     1.2898    -0.2552    14.4503    14.4658    -0.0155     1.8010     0.0000     1.0000     5.2118     5.147
      4   -46.2956   -13.0744      1.000     48.000   7459.000      1.081    41.5367     0.0003     0.0003    25.0000    15.0000    15.0000    25.0000    25.0000    15.0000    15.0000    25.0000    -0.0007     0.0000     0.0020    20.7738    41.5133     2.0768     1.2937     1.2937    -0.2560    14.4503    14.4659    -0.0156     1.8010     0.0000     1.0000     5.2118     5.147
      5   -46.4461   -13.1489      1.000    126.000   7547.000      1.094    41.5367     0.0003     0.0003    25.0000    15.0000    15.0000    25.0000    25.0000    15.0000    15.0000    25.0000    -0.0007     0.0000     0.0020    20.7737    41.5134     2.0831     1.2977     1.2977    -0.2568    14.4503    14.4658    -0.0155     1.8009     0.0000     1.0000     5.2118     5.147
      6   -46.5985   -13.2241      1.000    436.000   7387.000      1.071    41.5367     0.0003     0.0003    25.0000    15.0000    15.0000    25.0000    25.0000    15.0000    15.0000    25.0000    -0.0007     0.0000     0.0020    20.7737    41.5134     2.0896     1.3017     1.3017    -0.2576    14.4503    14.4658    -0.0155     1.8009     0.0000     1.0000     5.2118     5.147
      7   -46.7470   -13.2987      1.000   1366.000   7539.000      1.093    41.5367     0.0003     0.0003    25.0000    15.0000    15.0000    25.0000    25.0000    15.0000    15.0000    25.0000    -0.0007     0.0000     0.0020    20.7737    41.5133     2.0959     1.3056     1.3056    -0.2584    14.4503    14.4658    -0.0155     1.8008     0.0000     1.0000     5.2118     5.147
      8   -46.8981   -13.3743      1.000   3645.000   7467.000      1.082    41.5367     0.0003     0.0003    25.0000    15.0000    15.0000    25.0000    25.0000    15.0000    15.0000    25.0000    -0.0007     0.0000     0.0021    20.7738    41.5133     2.1023     1.3096     1.3096    -0.2592    14.4503    14.4659    -0.0156     1.8008     0.0000     1.0000     5.2118     5.147
      9   -47.0468   -13.4487      1.000   7417.000   7363.000      1.067    41.5367     0.0003     0.0003    25.0000    15.0000    15.0000    25.0000    25.0000    15.0000    15.0000    25.0000    -0.0007     0.0000     0.0021    20.7738    41.5133     2.1086     1.3135     1.3135    -0.2600    14.4503    14.4659    -0.0156     1.8006     0.0000     1.0000     5.2118     5.147
     10   -47.1988   -13.5241      1.000  12085.000   7391.000      1.071    41.5367     0.0003     0.0003    25.0000    15.0000    15.0000    25.0000    25.0000    15.0000    15.0000    25.0000    -0.0007     0.0000     0.0021    20.7738    41.5133     2.1150     1.3175     1.3175    -0.2608    14.4503    14.4659    -0.0156     1.8006     0.0000     1.0000     5.2118     5.147
     11   -47.3490   -13.5991      1.000  15711.000   7457.000      1.081    41.5367     0.0003     0.0003    25.0000    15.0000    15.0000    25.0000    25.0000    15.0000    15.0000    25.0000    -0.0007     0.0000     0.0022    20.7737    41.5134     2.1213     1.3215     1.3215    -0.2616    14.4503    14.4658    -0.0155     1.8006     0.0000     1.0000     5.2118     5.147
     12   -47.5009   -13.6748      1.000  16691.000   7398.000      1.072    41.5367     0.0003     0.0003    25.0000    15.0000    15.0000    25.0000    25.0000    15.0000    15.0000    25.0000    -0.0007     0.0000     0.0022    20.7738    41.5133     2.1277     1.3255     1.3255    -0.2624    14.4503    14.4659    -0.0156     1.8006     0.0000     1.0000     5.2118     5.147
     13   -47.6481   -13.7494      1.000  14272.000   7212.000      1.045    41.5367     0.0003     0.0003    25.0000    15.0000    15.0000    25.0000    25.0000    15.0000    15.0000    25.0000    -0.0007     0.0000     0.0022    20.7738    41.5133     2.1339     1.3294     1.3293    -0.2631    14.4503    14.4659    -0.0156     1.8006     0.0000     1.0000     5.2118     5.147
     14   -47.7962   -13.8244      1.000   9395.000   7496.000      1.086    41.5367     0.0003     0.0003    25.0000    15.0000    15.0000    25.0000    25.0000    15.0000    15.0000    25.0000    -0.0007     0.0000     0.0022    20.7737    41.5133     2.1402     1.3333     1.3332    -0.2639    14.4503    14.4658    -0.0155     1.8006     0.0000     1.0000     5.2118     5.147
     15   -47.9456   -13.8993      1.000   4933.000   7526.000      1.091    41.5367     0.0003     0.0003    25.0000    15.0000    15.0000    25.0000    25.0000    15.0000    15.0000    25.0000    -0.0007     0.0000     0.0022    20.7737    41.5133     2.1465     1.3372     1.3371    -0.2646    14.4503    14.4659    -0.0156     1.8006     0.0000     1.0000     5.2118     5.147
     16   -48.0978   -13.9744      1.000   2063.000   7388.000      1.071    41.5367     0.0003     0.0003    25.0000    15.0000    15.0000    25.0000    25.0000    15.0000    15.0000    25.0000    -0.0007     0.0000     0.0022    20.7737    41.5133     2.1529     1.3412     1.3411    -0.2655    14.4503    14.4658    -0.0155     1.8005     0.0000     1.0000     5.2118     5.147
     17   -48.2458   -14.0490      1.000    727.000   7388.000      1.071    41.5367     0.0003     0.0003    25.0000    15.0000    15.0000    25.0000    25.0000    15.0000    15.0000    25.0000    -0.0007     0.0000     0.0022    20.7737    41.5133     2.1591     1.3450     1.3450    -0.2662    14.4503    14.4659    -0.0156     1.8005     0.0000     1.0000     5.2118     5.147
     18   -48.3967   -14.1243      1.000    238.000   7541.000      1.093    41.5367     0.0003     0.0003    25.0000    15.0000    15.0000    25.0000    25.0000    15.0000    15.0000    25.0000    -0.0007     0.0000     0.0022    20.7738    41.5133     2.1655     1.3490     1.3490    -0.2670    14.4503    14.4659    -0.0156     1.8005     0.0000     1.0000     5.2118     5.147
     19   -48.5495   -14.1991      1.000     92.000   7534.000      1.092    41.5367     0.0003     0.0003    25.0000    15.0000    15.0000    25.0000    25.0000    15.0000    15.0000    25.0000    -0.0007     0.0000     0.0022    20.7738    41.5133     2.1719     1.3530     1.3530    -0.2678    14.4503    14.4659    -0.0156     1.8006     0.0000     1.0000     5.2118     5.147
     20   -48.6995   -14.2741      1.000     48.000   7389.000      1.071    41.5367     0.0003     0.0003    25.0000    15.0000    15.0000    25.0000    25.0000    15.0000    15.0000    25.0000    -0.0007     0.0000     0.0022    20.7737    41.5133     2.1782     1.3569     1.3569    -0.2686    14.4503    14.4659    -0.0156     1.8006     0.0000     1.0000     5.2118     5.147
     21   -48.8515   -14.3486      1.000     42.000   7512.000      1.089    41.5367     0.0003     0.0003    25.0000    15.0000    15.0000    25.0000    25.0000    15.0000    15.0000    25.0000    -0.0007     0.0000     0.0022    20.7738    41.5133     2.1846     1.3609     1.3609    -0.2695    14.4503    14.4659    -0.0156     1.8006     0.0000     1.0000     5.2118     5.147
# Sum of Counts = 89442
# Center of Mass = -47.454906+/-0.224404
# Full Width Half-Maximum = 0.648406+/-0.112937
# 2:05:27 PM  9/19/2023   scan completed.
