# scan = 1802
# date = 4/15/2024
# time = 2:54:36 PM
# proposal = 33477
# experiment = Commissioning and enabling the 4-circle capability at VERITAS
# experiment_number = 1012
# command = th2th 2 -2 0.2
# builtin_command = scan s2 @(s2)+2 @(s2)+-2 0.200000 s1 @(s1)+(2/2) @(s1)+(-2/2) 0.100000
# users = Feng Ye, Mike McDowell, Adam Aczel, Bing Li, Wei Tian, Bing Li
# local_contact = Wei Tian, Adam Aczel
# scan_title = ErFeO3, initial peak search [020]
# monochromator = PG002
# analyzer = Pg002
# sense = +-+
# collimation = 40-40-40-80
# samplename = La2Ni7, Al-doped CuFeO2
# sampletype = crystal
# samplemosaic = 30.000000
# latticeconstants = 5.263000,5.582000,7.591000,90.000000,90.000000,90.000000
# ubmatrix = -0.000000,0.179117,-0.000000,-0.000000,0.003291,-0.000000,-0.000000,0.000127,-0.000000
# mode = 0
# plane_normal = -0.000714,0.000226,1.000000
# ubconf = UB15Apr2024_11557PM.ini
# preset_type = normal 
# preset_channel = mcu
# preset_value = 1.000000
# def_x = s2
# def_y = detector
# col_headers = 
#   Pt.         s2         s1       time   detector    monitor        mcu         m2        chi        phi        sgl        sgu   slitb_bt   slitb_lf   slitb_rt   slitb_tp   slita_bt   slita_lf   slita_rt   slita_tp         a1         a2          q          h          k          l         ei         ef          e    coldtip     sample       temp
      1   -48.4614   -24.2432      1.042     10.000   9801.000      1.000    41.5367    -3.8095   108.9536     0.0409     0.0130    11.0000     8.0000     8.0000    11.0000    15.0000     8.0000     8.0000    15.0000    90.0028    -0.0008     2.1676     0.0000     0.0000     0.0000    14.4503    14.4503     0.0000     0.0000     0.0000   300.000
      2   -48.6647   -24.3427      1.046      5.000   9801.000      1.000    41.5367    -3.8095   108.9536     0.0409     0.0130    11.0000     8.0000     8.0000    11.0000    15.0000     8.0000     8.0000    15.0000    90.0028    -0.0008     2.1761     0.0000     0.0000     0.0000    14.4503    14.4503     0.0000     0.0000     0.0000   300.000
      3   -48.8672   -24.4433      1.029      6.000   9801.000      1.000    41.5367    -3.8095   108.9536     0.0409     0.0130    11.0000     8.0000     8.0000    11.0000    15.0000     8.0000     8.0000    15.0000    90.0028    -0.0008     2.1846     0.0000     0.0000     0.0000    14.4503    14.4503     0.0000     0.0000     0.0000   300.000
      4   -49.0674   -24.5436      1.036      7.000   9801.000      1.000    41.5367    -3.8095   108.9536     0.0409     0.0130    11.0000     8.0000     8.0000    11.0000    15.0000     8.0000     8.0000    15.0000    90.0028    -0.0008     2.1930     0.0000     0.0000     0.0000    14.4503    14.4503     0.0000     0.0000     0.0000   300.000
      5   -49.2673   -24.6436      1.038     17.000   9801.000      1.000    41.5367    -3.8095   108.9536     0.0409     0.0130    11.0000     8.0000     8.0000    11.0000    15.0000     8.0000     8.0000    15.0000    90.0028    -0.0008     2.2014     0.0000     0.0000     0.0000    14.4503    14.4503     0.0000     0.0000     0.0000   300.000
      6   -49.4649   -24.7438      1.050     79.000   9801.000      1.000    41.5367    -3.8095   108.9536     0.0409     0.0130    11.0000     8.0000     8.0000    11.0000    15.0000     8.0000     8.0000    15.0000    90.0028    -0.0008     2.2097     0.0000     0.0000     0.0000    14.4503    14.4503     0.0000     0.0000     0.0000   300.000
      7   -49.6613   -24.8435      1.030    243.000   9801.000      1.000    41.5367    -3.8095   108.9536     0.0409     0.0130    11.0000     8.0000     8.0000    11.0000    15.0000     8.0000     8.0000    15.0000    90.0028    -0.0008     2.2179     0.0000     0.0000     0.0000    14.4503    14.4503     0.0000     0.0000     0.0000   300.000
      8   -49.8636   -24.9434      1.060    472.000   9801.000      1.000    41.5367    -3.8095   108.9536     0.0409     0.0130    11.0000     8.0000     8.0000    11.0000    15.0000     8.0000     8.0000    15.0000    90.0028    -0.0008     2.2264     0.0000     0.0000     0.0000    14.4503    14.4503     0.0000     0.0000     0.0000   300.000
      9   -50.0618   -25.0433      1.037    614.000   9801.000      1.000    41.5367    -3.8095   108.9536     0.0409     0.0130    11.0000     8.0000     8.0000    11.0000    15.0000     8.0000     8.0000    15.0000    90.0028    -0.0008     2.2347     0.0000     0.0000     0.0000    14.4503    14.4503     0.0000     0.0000     0.0000   300.000
     10   -50.2642   -25.1431      1.041    688.000   9801.000      1.000    41.5367    -3.8095   108.9536     0.0409     0.0130    11.0000     8.0000     8.0000    11.0000    15.0000     8.0000     8.0000    15.0000    90.0028    -0.0008     2.2431     0.0000     0.0000     0.0000    14.4503    14.4503     0.0000     0.0000     0.0000   300.000
     11   -50.4659   -25.2426      1.031    618.000   9801.000      1.000    41.5367    -3.8095   108.9536     0.0409     0.0130    11.0000     8.0000     8.0000    11.0000    15.0000     8.0000     8.0000    15.0000    90.0028    -0.0008     2.2515     0.0000     0.0000     0.0000    14.4503    14.4503     0.0000     0.0000     0.0000   300.000
     12   -50.6693   -25.3428      1.032    487.000   9801.000      1.000    41.5367    -3.8095   108.9536     0.0409     0.0130    11.0000     8.0000     8.0000    11.0000    15.0000     8.0000     8.0000    15.0000    90.0028    -0.0008     2.2600     0.0000     0.0000     0.0000    14.4503    14.4503     0.0000     0.0000     0.0000   300.000
     13   -50.8667   -25.4433      1.040    325.000   9801.000      1.000    41.5367    -3.8095   108.9536     0.0409     0.0130    11.0000     8.0000     8.0000    11.0000    15.0000     8.0000     8.0000    15.0000    90.0027    -0.0008     2.2682     0.0000     0.0000     0.0000    14.4503    14.4503     0.0000     0.0000     0.0000   300.000
     14   -51.0652   -25.5437      1.039    185.000   9801.000      1.000    41.5367    -3.8095   108.9536     0.0409     0.0130    11.0000     8.0000     8.0000    11.0000    15.0000     8.0000     8.0000    15.0000    90.0028    -0.0008     2.2765     0.0000     0.0000     0.0000    14.4503    14.4503     0.0000     0.0000     0.0000   300.000
     15   -51.2640   -25.6435      1.029     57.000   9801.000      1.000    41.5367    -3.8095   108.9536     0.0409     0.0130    11.0000     8.0000     8.0000    11.0000    15.0000     8.0000     8.0000    15.0000    90.0027    -0.0008     2.2847     0.0000     0.0000     0.0000    14.4503    14.4503     0.0000     0.0000     0.0000   300.000
     16   -51.4629   -25.7438      1.038     22.000   9801.000      1.000    41.5367    -3.8095   108.9536     0.0409     0.0130    11.0000     8.0000     8.0000    11.0000    15.0000     8.0000     8.0000    15.0000    90.0027    -0.0008     2.2930     0.0000     0.0000     0.0000    14.4503    14.4503     0.0000     0.0000     0.0000   300.000
     17   -51.6661   -25.8435      1.036     10.000   9801.000      1.000    41.5367    -3.8095   108.9536     0.0409     0.0130    11.0000     8.0000     8.0000    11.0000    15.0000     8.0000     8.0000    15.0000    90.0027    -0.0008     2.3014     0.0000     0.0000     0.0000    14.4503    14.4503     0.0000     0.0000     0.0000   300.000
     18   -51.8628   -25.9434      1.043     15.000   9801.000      1.000    41.5367    -3.8095   108.9536     0.0409     0.0130    11.0000     8.0000     8.0000    11.0000    15.0000     8.0000     8.0000    15.0000    90.0027    -0.0008     2.3096     0.0000     0.0000     0.0000    14.4503    14.4503     0.0000     0.0000     0.0000   300.000
     19   -52.0639   -26.0434      1.048      8.000   9801.000      1.000    41.5367    -3.8095   108.9536     0.0409     0.0130    11.0000     8.0000     8.0000    11.0000    15.0000     8.0000     8.0000    15.0000    90.0027    -0.0008     2.3179     0.0000     0.0000     0.0000    14.4503    14.4503     0.0000     0.0000     0.0000   300.000
     20   -52.2665   -26.1429      1.033      9.000   9801.000      1.000    41.5367    -3.8095   108.9536     0.0409     0.0130    11.0000     8.0000     8.0000    11.0000    15.0000     8.0000     8.0000    15.0000    90.0027    -0.0009     2.3263     0.0000     0.0000     0.0000    14.4503    14.4503     0.0000     0.0000     0.0000   300.000
     21   -52.4663   -26.2429      1.044      7.000   9801.000      1.000    41.5367    -3.8095   108.9536     0.0409     0.0130    11.0000     8.0000     8.0000    11.0000    15.0000     8.0000     8.0000    15.0000    90.0027    -0.0009     2.3346     0.0000     0.0000     0.0000    14.4503    14.4503     0.0000     0.0000     0.0000   300.000
# Sum of Counts = 3884
# Center of Mass = -50.329180+/-1.142103
# Full Width Half-Maximum = 0.958173+/-0.546080
# 2:56:33 PM  4/15/2024   scan completed.
