# scan = 91
# date = 4/10/2024
# time = 12:16:20 AM
# proposal = 33477
# experiment = Commissioning and enabling the 4-circle capability at VERITAS
# experiment_number = 1012
# command = scanrel chi 6 -6 1
# builtin_command = scan chi @(chi)+6 @(chi)+-6 1.000000
# users = Feng Ye, Mike McDowell, Adam Aczel, Bing Li, Wei Tian, Bing Li
# local_contact = Wei Tian, Adam Aczel
# scan_title = La2Ni7-FC, (1 0 7), chi
# monochromator = PG002
# analyzer = Pg002
# sense = +-+
# collimation = 40-40-40-80
# samplename = La2Ni7, Al-doped CuFeO2
# sampletype = crystal
# samplemosaic = 30.000000
# latticeconstants = 
# ubmatrix = 
# mode = 0
# plane_normal = 0.000000,0.000000,0.000000
# ubconf = /C/SPICE/User/exp1012/UBConf/UB09Apr2024_32926PM.ini
# preset_type = normal 
# preset_channel = mcu
# preset_value = 10.000000
# def_x = chi
# def_y = detector
# col_headers = 
#   Pt.        chi       time   detector    monitor        mcu         m2        phi         s1         s2        sgl        sgu   slitb_bt   slitb_lf   slitb_rt   slitb_tp   slita_bt   slita_lf   slita_rt   slita_tp         a1         a2          q          h          k          l         ei         ef          e
      1    21.1107     11.221     47.000 106661.000     10.000    41.5367    50.9677   -25.7667   -51.5311     0.0409     0.0130    20.0000    10.0000    10.0000    20.0000    10.0000    10.0000    10.0000    10.0000    20.7602    -0.0010     2.2958     0.0000     0.0000     0.0000    14.4503    14.4503     0.000
      2    20.1103     11.246     65.000 106661.000     10.000    41.5367    50.9677   -25.7668   -51.5311     0.0409     0.0130    20.0000    10.0000    10.0000    20.0000    10.0000    10.0000    10.0000    10.0000    20.7602    -0.0010     2.2958     0.0000     0.0000     0.0000    14.4503    14.4503     0.000
      3    19.1103     11.253     48.000 106661.000     10.000    41.5367    50.9677   -25.7668   -51.5311     0.0409     0.0130    20.0000    10.0000    10.0000    20.0000    10.0000    10.0000    10.0000    10.0000    20.7602    -0.0010     2.2958     0.0000     0.0000     0.0000    14.4503    14.4503     0.000
      4    18.1103     11.320    219.000 106661.000     10.000    41.5367    50.9677   -25.7669   -51.5311     0.0409     0.0130    20.0000    10.0000    10.0000    20.0000    10.0000    10.0000    10.0000    10.0000    20.7602    -0.0010     2.2958     0.0000     0.0000     0.0000    14.4503    14.4503     0.000
      5    17.1103     11.253  10930.000 106661.000     10.000    41.5367    50.9677   -25.7669   -51.5311     0.0409     0.0130    20.0000    10.0000    10.0000    20.0000    10.0000    10.0000    10.0000    10.0000    20.7602    -0.0010     2.2958     0.0000     0.0000     0.0000    14.4503    14.4503     0.000
      6    16.1105     11.269  37683.000 106661.000     10.000    41.5367    50.9677   -25.7668   -51.5311     0.0409     0.0130    20.0000    10.0000    10.0000    20.0000    10.0000    10.0000    10.0000    10.0000    20.7602    -0.0010     2.2958     0.0000     0.0000     0.0000    14.4503    14.4503     0.000
      7    15.1103     11.224  53565.000 106661.000     10.000    41.5367    50.9677   -25.7669   -51.5311     0.0409     0.0130    20.0000    10.0000    10.0000    20.0000    10.0000    10.0000    10.0000    10.0000    20.7602    -0.0010     2.2958     0.0000     0.0000     0.0000    14.4503    14.4503     0.000
      8    14.1103     11.227  30821.000 106661.000     10.000    41.5367    50.9677   -25.7669   -51.5311     0.0409     0.0130    20.0000    10.0000    10.0000    20.0000    10.0000    10.0000    10.0000    10.0000    20.7602    -0.0010     2.2958     0.0000     0.0000     0.0000    14.4503    14.4503     0.000
      9    13.1100     11.262   6395.000 106661.000     10.000    41.5367    50.9677   -25.7669   -51.5311     0.0409     0.0130    20.0000    10.0000    10.0000    20.0000    10.0000    10.0000    10.0000    10.0000    20.7602    -0.0010     2.2958     0.0000     0.0000     0.0000    14.4503    14.4503     0.000
     10    12.1103     11.235     75.000 106661.000     10.000    41.5367    50.9677   -25.7669   -51.5311     0.0409     0.0130    20.0000    10.0000    10.0000    20.0000    10.0000    10.0000    10.0000    10.0000    20.7602    -0.0010     2.2958     0.0000     0.0000     0.0000    14.4503    14.4503     0.000
     11    11.1103     11.292     52.000 106661.000     10.000    41.5367    50.9677   -25.7669   -51.5311     0.0409     0.0130    20.0000    10.0000    10.0000    20.0000    10.0000    10.0000    10.0000    10.0000    20.7602    -0.0010     2.2958     0.0000     0.0000     0.0000    14.4503    14.4503     0.000
     12    10.1103     11.267     57.000 106661.000     10.000    41.5367    50.9677   -25.7669   -51.5311     0.0409     0.0130    20.0000    10.0000    10.0000    20.0000    10.0000    10.0000    10.0000    10.0000    20.7602    -0.0010     2.2958     0.0000     0.0000     0.0000    14.4503    14.4503     0.000
     13     9.1103     11.289     55.000 106661.000     10.000    41.5367    50.9677   -25.7669   -51.5311     0.0409     0.0130    20.0000    10.0000    10.0000    20.0000    10.0000    10.0000    10.0000    10.0000    20.7602    -0.0010     2.2958     0.0000     0.0000     0.0000    14.4503    14.4503     0.000
# Sum of Counts = 140012
# Center of Mass = 15.227045+/-0.057615
# Full Width Half-Maximum = 2.048513+/-0.043984
# 12:19:15 AM  4/10/2024   scan completed.
