# scan = 118
# date = 4/10/2024
# time = 2:35:18 AM
# proposal = 33477
# experiment = Commissioning and enabling the 4-circle capability at VERITAS
# experiment_number = 1012
# command = scanrel chi 6 -6 1
# builtin_command = scan chi @(chi)+6 @(chi)+-6 1.000000
# users = Feng Ye, Mike McDowell, Adam Aczel, Bing Li, Wei Tian, Bing Li
# local_contact = Wei Tian, Adam Aczel
# scan_title = La2Ni7-FC, (0 -1 9), chi
# monochromator = PG002
# analyzer = Pg002
# sense = +-+
# collimation = 40-40-40-80
# samplename = La2Ni7, Al-doped CuFeO2
# sampletype = crystal
# samplemosaic = 30.000000
# latticeconstants = 
# ubmatrix = 
# mode = 0
# plane_normal = 0.000000,0.000000,0.000000
# ubconf = /C/SPICE/User/exp1012/UBConf/UB09Apr2024_32926PM.ini
# preset_type = normal 
# preset_channel = mcu
# preset_value = 10.000000
# def_x = chi
# def_y = detector
# col_headers = 
#   Pt.        chi       time   detector    monitor        mcu         m2        phi         s1         s2        sgl        sgu   slitb_bt   slitb_lf   slitb_rt   slitb_tp   slita_bt   slita_lf   slita_rt   slita_tp         a1         a2          q          h          k          l         ei         ef          e
      1    19.6135     11.132    708.000 106661.000     10.000    41.5367  -113.4377   -30.9145   -61.8296     0.0409     0.0130    20.0000    10.0000    10.0000    20.0000    10.0000    10.0000    10.0000    10.0000    20.7603    -0.0011     2.7135     0.0000     0.0000     0.0000    14.4503    14.4503     0.000
      2    18.6127     11.183    700.000 106661.000     10.000    41.5367  -113.4377   -30.9145   -61.8296     0.0409     0.0130    20.0000    10.0000    10.0000    20.0000    10.0000    10.0000    10.0000    10.0000    20.7603    -0.0011     2.7135     0.0000     0.0000     0.0000    14.4503    14.4503     0.000
      3    17.6127     11.172    656.000 106661.000     10.000    41.5367  -113.4377   -30.9146   -61.8296     0.0409     0.0130    20.0000    10.0000    10.0000    20.0000    10.0000    10.0000    10.0000    10.0000    20.7603    -0.0011     2.7135     0.0000     0.0000     0.0000    14.4503    14.4503     0.000
      4    16.6127     11.169    628.000 106661.000     10.000    41.5367  -113.4377   -30.9146   -61.8296     0.0409     0.0130    20.0000    10.0000    10.0000    20.0000    10.0000    10.0000    10.0000    10.0000    20.7603    -0.0011     2.7135     0.0000     0.0000     0.0000    14.4503    14.4503     0.000
      5    15.6128     11.156    522.000 106661.000     10.000    41.5367  -113.4377   -30.9146   -61.8296     0.0409     0.0130    20.0000    10.0000    10.0000    20.0000    10.0000    10.0000    10.0000    10.0000    20.7603    -0.0011     2.7135     0.0000     0.0000     0.0000    14.4503    14.4503     0.000
      6    14.6128     11.107    491.000 106661.000     10.000    41.5367  -113.4377   -30.9146   -61.8296     0.0409     0.0130    20.0000    10.0000    10.0000    20.0000    10.0000    10.0000    10.0000    10.0000    20.7603    -0.0011     2.7135     0.0000     0.0000     0.0000    14.4503    14.4503     0.000
      7    13.6128     11.148    506.000 106661.000     10.000    41.5367  -113.4377   -30.9146   -61.8296     0.0409     0.0130    20.0000    10.0000    10.0000    20.0000    10.0000    10.0000    10.0000    10.0000    20.7603    -0.0011     2.7135     0.0000     0.0000     0.0000    14.4503    14.4503     0.000
      8    12.6128     11.152    464.000 106661.000     10.000    41.5367  -113.4377   -30.9146   -61.8296     0.0409     0.0130    20.0000    10.0000    10.0000    20.0000    10.0000    10.0000    10.0000    10.0000    20.7603    -0.0011     2.7135     0.0000     0.0000     0.0000    14.4503    14.4503     0.000
      9    11.6128     11.167    410.000 106661.000     10.000    41.5367  -113.4377   -30.9146   -61.8296     0.0409     0.0130    20.0000    10.0000    10.0000    20.0000    10.0000    10.0000    10.0000    10.0000    20.7603    -0.0011     2.7135     0.0000     0.0000     0.0000    14.4503    14.4503     0.000
     10    10.6128     11.100    438.000 106661.000     10.000    41.5367  -113.4377   -30.9146   -61.8296     0.0409     0.0130    20.0000    10.0000    10.0000    20.0000    10.0000    10.0000    10.0000    10.0000    20.7603    -0.0011     2.7135     0.0000     0.0000     0.0000    14.4503    14.4503     0.000
     11     9.6128     11.210    481.000 106661.000     10.000    41.5367  -113.4377   -30.9146   -61.8296     0.0409     0.0130    20.0000    10.0000    10.0000    20.0000    10.0000    10.0000    10.0000    10.0000    20.7603    -0.0011     2.7135     0.0000     0.0000     0.0000    14.4503    14.4503     0.000
     12     8.6128     11.199    463.000 106661.000     10.000    41.5367  -113.4377   -30.9147   -61.8296     0.0409     0.0130    20.0000    10.0000    10.0000    20.0000    10.0000    10.0000    10.0000    10.0000    20.7603    -0.0011     2.7135     0.0000     0.0000     0.0000    14.4503    14.4503     0.000
     13     7.6128     11.144    473.000 106661.000     10.000    41.5367  -113.4377   -30.9146   -61.8296     0.0409     0.0130    20.0000    10.0000    10.0000    20.0000    10.0000    10.0000    10.0000    10.0000    20.7603    -0.0011     2.7135     0.0000     0.0000     0.0000    14.4503    14.4503     0.000
# Sum of Counts = 6940
# Center of Mass = 14.205926+/-0.245495
# Full Width Half-Maximum = 7.653251+/-0.159790
# 2:38:14 AM  4/10/2024   scan completed.
