# scan = 1978
# date = 4/16/2024
# time = 12:01:53 AM
# proposal = 33477
# experiment = Commissioning and enabling the 4-circle capability at VERITAS
# experiment_number = 1012
# command = scan s1 -41.37 -43.37 0.1
# builtin_command = scan s1 -41.37 -43.37 0.1
# users = Feng Ye, Mike McDowell, Adam Aczel, Bing Li, Wei Tian, Bing Li
# local_contact = Wei Tian, Adam Aczel
# scan_title = Nuclear_300K_2axis: (-1.00 -2.00 3.00 )
# monochromator = PG002
# analyzer = Pg002
# sense = +-+
# collimation = 40-40-40-80
# samplename = La2Ni7, Al-doped CuFeO2
# sampletype = crystal
# samplemosaic = 30.000000
# latticeconstants = 5.263000,5.582000,7.591000,90.000000,90.000000,90.000000
# ubmatrix = -0.000000,0.179117,-0.000000,-0.000000,0.003291,-0.000000,-0.000000,0.000127,-0.000000
# mode = 0
# plane_normal = -0.000714,0.000226,1.000000
# ubconf = UB15Apr2024_11557PM.ini
# preset_type = normal 
# preset_channel = time
# preset_value = 11.000000
# def_x = s1
# def_y = detector
# col_headers = 
#   Pt.         s1       time   detector    monitor        mcu         m2        chi        phi         s2        sgl        sgu   slitb_bt   slitb_lf   slitb_rt   slitb_tp   slita_bt   slita_lf   slita_rt   slita_tp         a1         a2          q          h          k          l         ei         ef          e    coldtip     sample       temp
      1   -41.3700     11.000     22.000 105463.000     10.762    41.5367    15.1497   -21.0497   -84.7220     0.0409     0.0130    10.0000     5.0000     5.0000    10.0000    12.0000     8.0000     8.0000    12.0000    90.0030    -0.0009     3.5587     0.0000     0.0000     0.0000    14.4503    14.4503     0.0000     0.0000     0.0000   300.000
      2   -41.4698     11.000     12.000 105426.000     10.758    41.5367    15.1497   -21.0497   -84.7220     0.0409     0.0130    10.0000     5.0000     5.0000    10.0000    12.0000     8.0000     8.0000    12.0000    90.0030    -0.0009     3.5587     0.0000     0.0000     0.0000    14.4503    14.4503     0.0000     0.0000     0.0000   300.000
      3   -41.5702     11.000     17.000 105465.000     10.762    41.5367    15.1497   -21.0497   -84.7220     0.0409     0.0130    10.0000     5.0000     5.0000    10.0000    12.0000     8.0000     8.0000    12.0000    90.0029    -0.0009     3.5587     0.0000     0.0000     0.0000    14.4503    14.4503     0.0000     0.0000     0.0000   300.000
      4   -41.6704     11.000     18.000 105748.000     10.791    41.5367    15.1497   -21.0497   -84.7220     0.0409     0.0130    10.0000     5.0000     5.0000    10.0000    12.0000     8.0000     8.0000    12.0000    90.0030    -0.0009     3.5587     0.0000     0.0000     0.0000    14.4503    14.4503     0.0000     0.0000     0.0000   300.000
      5   -41.7700     11.000     31.000 105384.000     10.753    41.5367    15.1497   -21.0497   -84.7220     0.0409     0.0130    10.0000     5.0000     5.0000    10.0000    12.0000     8.0000     8.0000    12.0000    90.0029    -0.0009     3.5587     0.0000     0.0000     0.0000    14.4503    14.4503     0.0000     0.0000     0.0000   300.000
      6   -41.8700     11.000    103.000 105289.000     10.744    41.5367    15.1497   -21.0497   -84.7220     0.0409     0.0130    10.0000     5.0000     5.0000    10.0000    12.0000     8.0000     8.0000    12.0000    90.0029    -0.0009     3.5587     0.0000     0.0000     0.0000    14.4503    14.4503     0.0000     0.0000     0.0000   300.000
      7   -41.9699     11.000    515.000 106204.000     10.837    41.5367    15.1497   -21.0497   -84.7220     0.0409     0.0130    10.0000     5.0000     5.0000    10.0000    12.0000     8.0000     8.0000    12.0000    90.0030    -0.0009     3.5587     0.0000     0.0000     0.0000    14.4503    14.4503     0.0000     0.0000     0.0000   300.000
      8   -42.0699     11.000   1266.000 105471.000     10.762    41.5367    15.1497   -21.0497   -84.7220     0.0409     0.0130    10.0000     5.0000     5.0000    10.0000    12.0000     8.0000     8.0000    12.0000    90.0029    -0.0009     3.5587     0.0000     0.0000     0.0000    14.4503    14.4503     0.0000     0.0000     0.0000   300.000
      9   -42.1694     11.000   1876.000 105802.000     10.796    41.5367    15.1497   -21.0497   -84.7220     0.0409     0.0130    10.0000     5.0000     5.0000    10.0000    12.0000     8.0000     8.0000    12.0000    90.0029    -0.0009     3.5587     0.0000     0.0000     0.0000    14.4503    14.4503     0.0000     0.0000     0.0000   300.000
     10   -42.2695     11.000   1901.000 105704.000     10.786    41.5367    15.1497   -21.0497   -84.7220     0.0409     0.0130    10.0000     5.0000     5.0000    10.0000    12.0000     8.0000     8.0000    12.0000    90.0030    -0.0009     3.5587     0.0000     0.0000     0.0000    14.4503    14.4503     0.0000     0.0000     0.0000   300.000
     11   -42.3696     11.000   1050.000 105863.000     10.802    41.5367    15.1497   -21.0497   -84.7220     0.0409     0.0130    10.0000     5.0000     5.0000    10.0000    12.0000     8.0000     8.0000    12.0000    90.0029    -0.0009     3.5587     0.0000     0.0000     0.0000    14.4503    14.4503     0.0000     0.0000     0.0000   300.000
     12   -42.4699     11.000    417.000 105971.000     10.813    41.5367    15.1497   -21.0497   -84.7220     0.0409     0.0130    10.0000     5.0000     5.0000    10.0000    12.0000     8.0000     8.0000    12.0000    90.0030    -0.0009     3.5587     0.0000     0.0000     0.0000    14.4503    14.4503     0.0000     0.0000     0.0000   300.000
     13   -42.5702     11.000    108.000 105503.000     10.766    41.5367    15.1497   -21.0497   -84.7220     0.0409     0.0130    10.0000     5.0000     5.0000    10.0000    12.0000     8.0000     8.0000    12.0000    90.0030    -0.0009     3.5587     0.0000     0.0000     0.0000    14.4503    14.4503     0.0000     0.0000     0.0000   300.000
     14   -42.6704     11.000     32.000 105788.000     10.795    41.5367    15.1497   -21.0497   -84.7220     0.0409     0.0130    10.0000     5.0000     5.0000    10.0000    12.0000     8.0000     8.0000    12.0000    90.0029    -0.0009     3.5587     0.0000     0.0000     0.0000    14.4503    14.4503     0.0000     0.0000     0.0000   300.000
     15   -42.7702     11.000     27.000 105589.000     10.774    41.5367    15.1497   -21.0497   -84.7220     0.0409     0.0130    10.0000     5.0000     5.0000    10.0000    12.0000     8.0000     8.0000    12.0000    90.0030    -0.0009     3.5587     0.0000     0.0000     0.0000    14.4503    14.4503     0.0000     0.0000     0.0000   300.000
     16   -42.8699     11.000     18.000 105757.000     10.792    41.5367    15.1497   -21.0497   -84.7220     0.0409     0.0130    10.0000     5.0000     5.0000    10.0000    12.0000     8.0000     8.0000    12.0000    90.0029    -0.0009     3.5587     0.0000     0.0000     0.0000    14.4503    14.4503     0.0000     0.0000     0.0000   300.000
     17   -42.9697     11.000      9.000 105678.000     10.783    41.5367    15.1497   -21.0497   -84.7220     0.0409     0.0130    10.0000     5.0000     5.0000    10.0000    12.0000     8.0000     8.0000    12.0000    90.0030    -0.0009     3.5587     0.0000     0.0000     0.0000    14.4503    14.4503     0.0000     0.0000     0.0000   300.000
     18   -43.0698     11.000     12.000 105742.000     10.790    41.5367    15.1497   -21.0497   -84.7220     0.0409     0.0130    10.0000     5.0000     5.0000    10.0000    12.0000     8.0000     8.0000    12.0000    90.0030    -0.0009     3.5587     0.0000     0.0000     0.0000    14.4503    14.4503     0.0000     0.0000     0.0000   300.000
     19   -43.1697     11.000     15.000 105707.000     10.786    41.5367    15.1497   -21.0497   -84.7220     0.0409     0.0130    10.0000     5.0000     5.0000    10.0000    12.0000     8.0000     8.0000    12.0000    90.0029    -0.0009     3.5587     0.0000     0.0000     0.0000    14.4503    14.4503     0.0000     0.0000     0.0000   300.000
     20   -43.2695     11.000     16.000 106037.000     10.820    41.5367    15.1497   -21.0497   -84.7220     0.0409     0.0130    10.0000     5.0000     5.0000    10.0000    12.0000     8.0000     8.0000    12.0000    90.0029    -0.0009     3.5587     0.0000     0.0000     0.0000    14.4503    14.4503     0.0000     0.0000     0.0000   300.000
     21   -43.3694     11.000     15.000 106116.000     10.828    41.5367    15.1497   -21.0497   -84.7220     0.0409     0.0130    10.0000     5.0000     5.0000    10.0000    12.0000     8.0000     8.0000    12.0000    90.0029    -0.0009     3.5587     0.0000     0.0000     0.0000    14.4503    14.4503     0.0000     0.0000     0.0000   300.000
# Sum of Counts = 7480
# Center of Mass = -42.218263+/-0.690346
# Full Width Half-Maximum = 0.382841+/-0.321162
# 12:07:11 AM  4/16/2024   scan completed.
