# scan = 1805
# date = 4/15/2024
# time = 3:08:46 PM
# proposal = 33477
# experiment = Commissioning and enabling the 4-circle capability at VERITAS
# experiment_number = 1012
# command = th2th 2 -2 0.2
# builtin_command = scan s2 @(s2)+2 @(s2)+-2 0.200000 s1 @(s1)+(2/2) @(s1)+(-2/2) 0.100000
# users = Feng Ye, Mike McDowell, Adam Aczel, Bing Li, Wei Tian, Bing Li
# local_contact = Wei Tian, Adam Aczel
# scan_title = ErFeO3, initial peak search [020]
# monochromator = PG002
# analyzer = Pg002
# sense = +-+
# collimation = 40-40-40-80
# samplename = La2Ni7, Al-doped CuFeO2
# sampletype = crystal
# samplemosaic = 30.000000
# latticeconstants = 5.263000,5.582000,7.591000,90.000000,90.000000,90.000000
# ubmatrix = -0.000000,0.179117,-0.000000,-0.000000,0.003291,-0.000000,-0.000000,0.000127,-0.000000
# mode = 0
# plane_normal = -0.000714,0.000226,1.000000
# ubconf = UB15Apr2024_11557PM.ini
# preset_type = normal 
# preset_channel = mcu
# preset_value = 1.000000
# def_x = s2
# def_y = detector
# col_headers = 
#   Pt.         s2         s1       time   detector    monitor        mcu         m2        chi        phi        sgl        sgu   slitb_bt   slitb_lf   slitb_rt   slitb_tp   slita_bt   slita_lf   slita_rt   slita_tp         a1         a2          q          h          k          l         ei         ef          e    coldtip     sample       temp
      1   -34.5313   -17.2666      1.021      7.000   9801.000      1.000    41.5367    -9.3745    18.3879     0.0409     0.0130    11.0000     8.0000     8.0000    11.0000    15.0000     8.0000     8.0000    15.0000    90.0031    -0.0007     1.5676     0.0000     0.0000     0.0000    14.4503    14.4503     0.0000     0.0000     0.0000   300.000
      2   -34.7299   -17.3663      1.038      4.000   9801.000      1.000    41.5367    -9.3745    18.3879     0.0409     0.0130    11.0000     8.0000     8.0000    11.0000    15.0000     8.0000     8.0000    15.0000    90.0031    -0.0007     1.5763     0.0000     0.0000     0.0000    14.4503    14.4503     0.0000     0.0000     0.0000   300.000
      3   -34.9297   -17.4667      1.030      8.000   9801.000      1.000    41.5367    -9.3745    18.3879     0.0409     0.0130    11.0000     8.0000     8.0000    11.0000    15.0000     8.0000     8.0000    15.0000    90.0030    -0.0008     1.5851     0.0000     0.0000     0.0000    14.4503    14.4503     0.0000     0.0000     0.0000   300.000
      4   -35.1315   -17.5669      1.028      6.000   9801.000      1.000    41.5367    -9.3745    18.3879     0.0409     0.0130    11.0000     8.0000     8.0000    11.0000    15.0000     8.0000     8.0000    15.0000    90.0030    -0.0007     1.5940     0.0000     0.0000     0.0000    14.4503    14.4503     0.0000     0.0000     0.0000   300.000
      5   -35.3326   -17.6670      1.042     11.000   9801.000      1.000    41.5367    -9.3745    18.3879     0.0409     0.0130    11.0000     8.0000     8.0000    11.0000    15.0000     8.0000     8.0000    15.0000    90.0030    -0.0008     1.6028     0.0000     0.0000     0.0000    14.4503    14.4503     0.0000     0.0000     0.0000   300.000
      6   -35.5332   -17.7669      1.029     14.000   9801.000      1.000    41.5367    -9.3745    18.3879     0.0409     0.0130    11.0000     8.0000     8.0000    11.0000    15.0000     8.0000     8.0000    15.0000    90.0030    -0.0007     1.6116     0.0000     0.0000     0.0000    14.4503    14.4503     0.0000     0.0000     0.0000   300.000
      7   -35.7354   -17.8666      1.030     53.000   9801.000      1.000    41.5367    -9.3745    18.3879     0.0409     0.0130    11.0000     8.0000     8.0000    11.0000    15.0000     8.0000     8.0000    15.0000    90.0030    -0.0008     1.6205     0.0000     0.0000     0.0000    14.4503    14.4503     0.0000     0.0000     0.0000   300.000
      8   -35.9365   -17.9667      1.016    161.000   9801.000      1.000    41.5367    -9.3745    18.3879     0.0409     0.0130    11.0000     8.0000     8.0000    11.0000    15.0000     8.0000     8.0000    15.0000    90.0030    -0.0008     1.6293     0.0000     0.0000     0.0000    14.4503    14.4503     0.0000     0.0000     0.0000   300.000
      9   -36.1395   -18.0666      1.037    314.000   9801.000      1.000    41.5367    -9.3745    18.3879     0.0409     0.0130    11.0000     8.0000     8.0000    11.0000    15.0000     8.0000     8.0000    15.0000    90.0030    -0.0008     1.6382     0.0000     0.0000     0.0000    14.4503    14.4503     0.0000     0.0000     0.0000   300.000
     10   -36.3320   -18.1660      1.036    390.000   9801.000      1.000    41.5367    -9.3745    18.3879     0.0409     0.0130    11.0000     8.0000     8.0000    11.0000    15.0000     8.0000     8.0000    15.0000    90.0029    -0.0008     1.6466     0.0000     0.0000     0.0000    14.4503    14.4503     0.0000     0.0000     0.0000   300.000
     11   -36.5303   -18.2663      1.038    405.000   9801.000      1.000    41.5367    -9.3745    18.3879     0.0409     0.0130    11.0000     8.0000     8.0000    11.0000    15.0000     8.0000     8.0000    15.0000    90.0029    -0.0008     1.6553     0.0000     0.0000     0.0000    14.4503    14.4503     0.0000     0.0000     0.0000   300.000
     12   -36.7334   -18.3665      1.037    313.000   9801.000      1.000    41.5367    -9.3745    18.3879     0.0409     0.0130    11.0000     8.0000     8.0000    11.0000    15.0000     8.0000     8.0000    15.0000    90.0029    -0.0008     1.6642     0.0000     0.0000     0.0000    14.4503    14.4503     0.0000     0.0000     0.0000   300.000
     13   -36.9303   -18.4667      1.037    195.000   9801.000      1.000    41.5367    -9.3745    18.3879     0.0409     0.0130    11.0000     8.0000     8.0000    11.0000    15.0000     8.0000     8.0000    15.0000    90.0029    -0.0008     1.6728     0.0000     0.0000     0.0000    14.4503    14.4503     0.0000     0.0000     0.0000   300.000
     14   -37.1319   -18.5668      1.040     61.000   9801.000      1.000    41.5367    -9.3745    18.3879     0.0409     0.0130    11.0000     8.0000     8.0000    11.0000    15.0000     8.0000     8.0000    15.0000    90.0029    -0.0008     1.6816     0.0000     0.0000     0.0000    14.4503    14.4503     0.0000     0.0000     0.0000   300.000
     15   -37.3367   -18.6671      1.038     23.000   9801.000      1.000    41.5367    -9.3745    18.3879     0.0409     0.0130    11.0000     8.0000     8.0000    11.0000    15.0000     8.0000     8.0000    15.0000    90.0029    -0.0008     1.6906     0.0000     0.0000     0.0000    14.4503    14.4503     0.0000     0.0000     0.0000   300.000
     16   -37.5345   -18.7667      1.031      7.000   9801.000      1.000    41.5367    -9.3745    18.3879     0.0409     0.0130    11.0000     8.0000     8.0000    11.0000    15.0000     8.0000     8.0000    15.0000    90.0029    -0.0008     1.6992     0.0000     0.0000     0.0000    14.4503    14.4503     0.0000     0.0000     0.0000   300.000
     17   -37.7365   -18.8668      1.039     10.000   9801.000      1.000    41.5367    -9.3745    18.3879     0.0409     0.0130    11.0000     8.0000     8.0000    11.0000    15.0000     8.0000     8.0000    15.0000    90.0029    -0.0008     1.7080     0.0000     0.0000     0.0000    14.4503    14.4503     0.0000     0.0000     0.0000   300.000
     18   -37.9348   -18.9667      1.038      3.000   9801.000      1.000    41.5367    -9.3745    18.3879     0.0409     0.0130    11.0000     8.0000     8.0000    11.0000    15.0000     8.0000     8.0000    15.0000    90.0029    -0.0008     1.7167     0.0000     0.0000     0.0000    14.4503    14.4503     0.0000     0.0000     0.0000   300.000
     19   -38.1306   -19.0666      1.034      8.000   9801.000      1.000    41.5367    -9.3745    18.3879     0.0409     0.0130    11.0000     8.0000     8.0000    11.0000    15.0000     8.0000     8.0000    15.0000    90.0029    -0.0008     1.7252     0.0000     0.0000     0.0000    14.4503    14.4503     0.0000     0.0000     0.0000   300.000
     20   -38.3339   -19.1662      1.035     11.000   9801.000      1.000    41.5367    -9.3745    18.3879     0.0409     0.0130    11.0000     8.0000     8.0000    11.0000    15.0000     8.0000     8.0000    15.0000    90.0029    -0.0008     1.7340     0.0000     0.0000     0.0000    14.4503    14.4503     0.0000     0.0000     0.0000   300.000
     21   -38.5333   -19.2662      1.039     11.000   9801.000      1.000    41.5367    -9.3745    18.3879     0.0409     0.0130    11.0000     8.0000     8.0000    11.0000    15.0000     8.0000     8.0000    15.0000    90.0029    -0.0008     1.7427     0.0000     0.0000     0.0000    14.4503    14.4503     0.0000     0.0000     0.0000   300.000
# Sum of Counts = 2015
# Center of Mass = -36.464538+/-1.148859
# Full Width Half-Maximum = 0.952238+/-0.491971
# 3:10:43 PM  4/15/2024   scan completed.
