# scan = 248
# date = 4/10/2024
# time = 7:01:03 PM
# proposal = 33477
# experiment = Commissioning and enabling the 4-circle capability at VERITAS
# experiment_number = 1012
# command = th2th 2 -2 0.2
# builtin_command = scan s2 @(s2)+2 @(s2)+-2 0.200000 s1 @(s1)+(2/2) @(s1)+(-2/2) 0.100000
# users = Feng Ye, Mike McDowell, Adam Aczel, Bing Li, Wei Tian, Bing Li
# local_contact = Wei Tian, Adam Aczel
# scan_title = Ruby-FC, [1 0 1] th2th
# monochromator = PG002
# analyzer = Pg002
# sense = +-+
# collimation = 40-40-40-80
# samplename = La2Ni7, Al-doped CuFeO2
# sampletype = crystal
# samplemosaic = 30.000000
# latticeconstants = 13.649303,9.890496,7.024000,90.000000,90.000000,90.000000
# ubmatrix = -0.000052,0.101107,-0.000002,0.000017,0.000002,0.142369,0.073264,0.000072,-0.000032
# mode = 0
# plane_normal = -0.000714,0.000226,1.000000
# ubconf = UB10Apr2024_62322PM.ini
# preset_type = normal 
# preset_channel = mcu
# preset_value = 10.000000
# def_x = s2
# def_y = detector
# col_headers = 
#   Pt.         s2         s1       time   detector    monitor        mcu         m2        chi        phi        sgl        sgu   slitb_bt   slitb_lf   slitb_rt   slitb_tp   slita_bt   slita_lf   slita_rt   slita_tp         a1         a2          q          h          k          l         ei         ef          e
      1   -43.0735   -21.5451     11.058    663.000 106661.000     10.000    41.5367    27.5660  -140.6897     0.0409     0.0130    20.0000    10.0000    10.0000    20.0000    15.0000    10.0000    10.0000    15.0000    20.7603    -0.0010     1.9388     0.0000     3.0520     0.0003    14.4503    14.4503     0.000
      2   -43.2693   -21.6449     10.976    700.000 106661.000     10.000    41.5367    27.5660  -140.6897     0.0409     0.0130    20.0000    10.0000    10.0000    20.0000    15.0000    10.0000    10.0000    15.0000    20.7603    -0.0011     1.9472     0.0000     3.0652     0.0004    14.4503    14.4503     0.000
      3   -43.4707   -21.7456     11.087    670.000 106661.000     10.000    41.5367    27.5660  -140.6897     0.0409     0.0130    20.0000    10.0000    10.0000    20.0000    15.0000    10.0000    10.0000    15.0000    20.7603    -0.0010     1.9559     0.0000     3.0788     0.0004    14.4503    14.4503     0.000
      4   -43.6720   -21.8450     11.011    711.000 106661.000     10.000    41.5367    27.5660  -140.6897     0.0409     0.0130    20.0000    10.0000    10.0000    20.0000    15.0000    10.0000    10.0000    15.0000    20.7603    -0.0010     1.9645     0.0000     3.0923     0.0003    14.4503    14.4503     0.000
      5   -43.8723   -21.9449     11.041    737.000 106661.000     10.000    41.5367    27.5660  -140.6897     0.0409     0.0130    20.0000    10.0000    10.0000    20.0000    15.0000    10.0000    10.0000    15.0000    20.7603    -0.0011     1.9730     0.0000     3.1058     0.0003    14.4503    14.4503     0.000
      6   -44.0752   -22.0451     11.017    797.000 106661.000     10.000    41.5367    27.5660  -140.6897     0.0409     0.0130    20.0000    10.0000    10.0000    20.0000    15.0000    10.0000    10.0000    15.0000    20.7603    -0.0011     1.9817    -0.0000     3.1195     0.0003    14.4503    14.4503     0.000
      7   -44.2757   -22.1445     11.018   1896.000 106661.000     10.000    41.5367    27.5660  -140.6897     0.0409     0.0130    20.0000    10.0000    10.0000    20.0000    15.0000    10.0000    10.0000    15.0000    20.7602    -0.0010     1.9903     0.0000     3.1329     0.0002    14.4503    14.4503     0.000
      8   -44.4723   -22.2445     11.041   6806.000 106661.000     10.000    41.5367    27.5660  -140.6897     0.0409     0.0130    20.0000    10.0000    10.0000    20.0000    15.0000    10.0000    10.0000    15.0000    20.7603    -0.0011     1.9987     0.0000     3.1461     0.0003    14.4503    14.4503     0.000
      9   -44.6713   -22.3447     11.024  14049.000 106661.000     10.000    41.5367    27.5660  -140.6897     0.0409     0.0130    20.0000    10.0000    10.0000    20.0000    15.0000    10.0000    10.0000    15.0000    20.7602    -0.0010     2.0072     0.0000     3.1595     0.0003    14.4503    14.4503     0.000
     10   -44.8717   -22.4449     10.981  16884.000 106661.000     10.000    41.5367    27.5660  -140.6897     0.0409     0.0130    20.0000    10.0000    10.0000    20.0000    15.0000    10.0000    10.0000    15.0000    20.7602    -0.0010     2.0157     0.0000     3.1729     0.0003    14.4503    14.4503     0.000
     11   -45.0718   -22.5452     11.003  14300.000 106661.000     10.000    41.5367    27.5660  -140.6897     0.0409     0.0130    20.0000    10.0000    10.0000    20.0000    15.0000    10.0000    10.0000    15.0000    20.7603    -0.0010     2.0242     0.0000     3.1864     0.0003    14.4503    14.4503     0.000
     12   -45.2726   -22.6452     11.074  10684.000 106661.000     10.000    41.5367    27.5660  -140.6897     0.0409     0.0130    20.0000    10.0000    10.0000    20.0000    15.0000    10.0000    10.0000    15.0000    20.7602    -0.0010     2.0328     0.0000     3.1998     0.0003    14.4503    14.4503     0.000
     13   -45.4721   -22.7454     11.036   7325.000 106661.000     10.000    41.5367    27.5660  -140.6897     0.0409     0.0130    20.0000    10.0000    10.0000    20.0000    15.0000    10.0000    10.0000    15.0000    20.7602    -0.0010     2.0412     0.0000     3.2132     0.0003    14.4503    14.4503     0.000
     14   -45.6722   -22.8450     11.079   5088.000 106661.000     10.000    41.5367    27.5660  -140.6897     0.0409     0.0130    20.0000    10.0000    10.0000    20.0000    15.0000    10.0000    10.0000    15.0000    20.7602    -0.0010     2.0497     0.0000     3.2265     0.0003    14.4503    14.4503     0.000
     15   -45.8746   -22.9451     11.093   3455.000 106661.000     10.000    41.5367    27.5660  -140.6897     0.0409     0.0130    20.0000    10.0000    10.0000    20.0000    15.0000    10.0000    10.0000    15.0000    20.7602    -0.0010     2.0583     0.0000     3.2401     0.0003    14.4503    14.4503     0.000
     16   -46.0712   -23.0449     11.071   2312.000 106661.000     10.000    41.5367    27.5660  -140.6897     0.0409     0.0130    20.0000    10.0000    10.0000    20.0000    15.0000    10.0000    10.0000    15.0000    20.7602    -0.0010     2.0667     0.0000     3.2532     0.0003    14.4503    14.4503     0.000
     17   -46.2706   -23.1445     11.049   1399.000 106661.000     10.000    41.5367    27.5660  -140.6897     0.0409     0.0130    20.0000    10.0000    10.0000    20.0000    15.0000    10.0000    10.0000    15.0000    20.7602    -0.0010     2.0751     0.0000     3.2665     0.0003    14.4503    14.4503     0.000
     18   -46.4684   -23.2445     11.067    921.000 106661.000     10.000    41.5367    27.5660  -140.6897     0.0409     0.0130    20.0000    10.0000    10.0000    20.0000    15.0000    10.0000    10.0000    15.0000    20.7602    -0.0010     2.0835     0.0000     3.2797     0.0004    14.4503    14.4503     0.000
     19   -46.6705   -23.3446     11.044    761.000 106661.000     10.000    41.5367    27.5660  -140.6897     0.0409     0.0130    20.0000    10.0000    10.0000    20.0000    15.0000    10.0000    10.0000    15.0000    20.7602    -0.0010     2.0921     0.0000     3.2932     0.0003    14.4503    14.4503     0.000
     20   -46.8704   -23.4450     10.994    749.000 106661.000     10.000    41.5367    27.5660  -140.6897     0.0409     0.0130    20.0000    10.0000    10.0000    20.0000    15.0000    10.0000    10.0000    15.0000    20.7602    -0.0010     2.1005     0.0000     3.3065     0.0004    14.4503    14.4503     0.000
     21   -47.0731   -23.5453     11.073    716.000 106661.000     10.000    41.5367    27.5660  -140.6897     0.0409     0.0130    20.0000    10.0000    10.0000    20.0000    15.0000    10.0000    10.0000    15.0000    20.7602    -0.0010     2.1091     0.0000     3.3200     0.0003    14.4503    14.4503     0.000
# Sum of Counts = 91623
# Center of Mass = -45.063604+/-0.210552
# Full Width Half-Maximum = 1.244444+/-0.078629
# 7:05:40 PM  4/10/2024   scan completed.
