# scan = 1909
# date = 4/15/2024
# time = 8:14:54 PM
# proposal = 33477
# experiment = Commissioning and enabling the 4-circle capability at VERITAS
# experiment_number = 1012
# command = scan s1 -25.20 -27.20 0.1
# builtin_command = scan s1 -25.20 -27.20 0.1
# users = Feng Ye, Mike McDowell, Adam Aczel, Bing Li, Wei Tian, Bing Li
# local_contact = Wei Tian, Adam Aczel
# scan_title = Nuclear_300K_2axis: (1.00 -1.00 -2.00 )
# monochromator = PG002
# analyzer = Pg002
# sense = +-+
# collimation = 40-40-40-80
# samplename = La2Ni7, Al-doped CuFeO2
# sampletype = crystal
# samplemosaic = 30.000000
# latticeconstants = 5.263000,5.582000,7.591000,90.000000,90.000000,90.000000
# ubmatrix = -0.000000,0.179117,-0.000000,-0.000000,0.003291,-0.000000,-0.000000,0.000127,-0.000000
# mode = 0
# plane_normal = -0.000714,0.000226,1.000000
# ubconf = UB15Apr2024_11557PM.ini
# preset_type = normal 
# preset_channel = time
# preset_value = 3.000000
# def_x = s1
# def_y = detector
# col_headers = 
#   Pt.         s1       time   detector    monitor        mcu         m2        chi        phi         s2        sgl        sgu   slitb_bt   slitb_lf   slitb_rt   slitb_tp   slita_bt   slita_lf   slita_rt   slita_tp         a1         a2          q          h          k          l         ei         ef          e    coldtip     sample       temp
      1   -25.1997      3.000      8.000  28619.000      2.920    41.5367   -21.2400  -128.3998   -52.3886     0.0409     0.0130    10.0000     5.0000     5.0000    10.0000    12.0000     8.0000     8.0000    12.0000    90.0031    -0.0009     2.3314     0.0000     0.0000     0.0000    14.4503    14.4503     0.0000     0.0000     0.0000   300.000
      2   -25.2996      3.000     10.000  28780.000      2.937    41.5367   -21.2400  -128.3998   -52.3886     0.0409     0.0130    10.0000     5.0000     5.0000    10.0000    12.0000     8.0000     8.0000    12.0000    90.0031    -0.0009     2.3314     0.0000     0.0000     0.0000    14.4503    14.4503     0.0000     0.0000     0.0000   300.000
      3   -25.3997      3.000     14.000  29126.000      2.972    41.5367   -21.2400  -128.3998   -52.3886     0.0409     0.0130    10.0000     5.0000     5.0000    10.0000    12.0000     8.0000     8.0000    12.0000    90.0031    -0.0009     2.3314     0.0000     0.0000     0.0000    14.4503    14.4503     0.0000     0.0000     0.0000   300.000
      4   -25.5000      3.000     18.000  28783.000      2.937    41.5367   -21.2400  -128.3998   -52.3886     0.0409     0.0130    10.0000     5.0000     5.0000    10.0000    12.0000     8.0000     8.0000    12.0000    90.0031    -0.0009     2.3314     0.0000     0.0000     0.0000    14.4503    14.4503     0.0000     0.0000     0.0000   300.000
      5   -25.6003      3.000     22.000  28807.000      2.939    41.5367   -21.2400  -128.3998   -52.3886     0.0409     0.0130    10.0000     5.0000     5.0000    10.0000    12.0000     8.0000     8.0000    12.0000    90.0031    -0.0009     2.3314     0.0000     0.0000     0.0000    14.4503    14.4503     0.0000     0.0000     0.0000   300.000
      6   -25.7001      3.000    143.000  28845.000      2.943    41.5367   -21.2400  -128.3998   -52.3886     0.0409     0.0130    10.0000     5.0000     5.0000    10.0000    12.0000     8.0000     8.0000    12.0000    90.0031    -0.0009     2.3314     0.0000     0.0000     0.0000    14.4503    14.4503     0.0000     0.0000     0.0000   300.000
      7   -25.8002      3.000    536.000  28621.000      2.921    41.5367   -21.2400  -128.3998   -52.3886     0.0409     0.0130    10.0000     5.0000     5.0000    10.0000    12.0000     8.0000     8.0000    12.0000    90.0031    -0.0009     2.3314     0.0000     0.0000     0.0000    14.4503    14.4503     0.0000     0.0000     0.0000   300.000
      8   -25.8999      3.000   1181.000  28927.000      2.952    41.5367   -21.2400  -128.3998   -52.3886     0.0409     0.0130    10.0000     5.0000     5.0000    10.0000    12.0000     8.0000     8.0000    12.0000    90.0031    -0.0009     2.3314     0.0000     0.0000     0.0000    14.4503    14.4503     0.0000     0.0000     0.0000   300.000
      9   -25.9999      3.000   1862.000  28828.000      2.942    41.5367   -21.2400  -128.3998   -52.3886     0.0409     0.0130    10.0000     5.0000     5.0000    10.0000    12.0000     8.0000     8.0000    12.0000    90.0030    -0.0009     2.3314     0.0000     0.0000     0.0000    14.4503    14.4503     0.0000     0.0000     0.0000   300.000
     10   -26.0998      3.000   2034.000  28944.000      2.953    41.5367   -21.2400  -128.3998   -52.3886     0.0409     0.0130    10.0000     5.0000     5.0000    10.0000    12.0000     8.0000     8.0000    12.0000    90.0031    -0.0009     2.3314     0.0000     0.0000     0.0000    14.4503    14.4503     0.0000     0.0000     0.0000   300.000
     11   -26.1995      3.000   1441.000  28589.000      2.917    41.5367   -21.2400  -128.3998   -52.3886     0.0409     0.0130    10.0000     5.0000     5.0000    10.0000    12.0000     8.0000     8.0000    12.0000    90.0031    -0.0009     2.3314     0.0000     0.0000     0.0000    14.4503    14.4503     0.0000     0.0000     0.0000   300.000
     12   -26.2997      3.000    622.000  28847.000      2.944    41.5367   -21.2400  -128.3998   -52.3886     0.0409     0.0130    10.0000     5.0000     5.0000    10.0000    12.0000     8.0000     8.0000    12.0000    90.0030    -0.0009     2.3314     0.0000     0.0000     0.0000    14.4503    14.4503     0.0000     0.0000     0.0000   300.000
     13   -26.3996      3.000    163.000  28838.000      2.943    41.5367   -21.2400  -128.3998   -52.3886     0.0409     0.0130    10.0000     5.0000     5.0000    10.0000    12.0000     8.0000     8.0000    12.0000    90.0030    -0.0009     2.3314     0.0000     0.0000     0.0000    14.4503    14.4503     0.0000     0.0000     0.0000   300.000
     14   -26.4999      3.000     38.000  28773.000      2.936    41.5367   -21.2400  -128.3998   -52.3886     0.0409     0.0130    10.0000     5.0000     5.0000    10.0000    12.0000     8.0000     8.0000    12.0000    90.0030    -0.0009     2.3314     0.0000     0.0000     0.0000    14.4503    14.4503     0.0000     0.0000     0.0000   300.000
     15   -26.6004      3.000     23.000  28677.000      2.926    41.5367   -21.2400  -128.3998   -52.3886     0.0409     0.0130    10.0000     5.0000     5.0000    10.0000    12.0000     8.0000     8.0000    12.0000    90.0031    -0.0009     2.3314     0.0000     0.0000     0.0000    14.4503    14.4503     0.0000     0.0000     0.0000   300.000
     16   -26.7001      3.000     14.000  28694.000      2.928    41.5367   -21.2400  -128.3998   -52.3886     0.0409     0.0130    10.0000     5.0000     5.0000    10.0000    12.0000     8.0000     8.0000    12.0000    90.0031    -0.0009     2.3314     0.0000     0.0000     0.0000    14.4503    14.4503     0.0000     0.0000     0.0000   300.000
     17   -26.8000      3.000      9.000  28518.000      2.910    41.5367   -21.2400  -128.3998   -52.3886     0.0409     0.0130    10.0000     5.0000     5.0000    10.0000    12.0000     8.0000     8.0000    12.0000    90.0031    -0.0009     2.3314     0.0000     0.0000     0.0000    14.4503    14.4503     0.0000     0.0000     0.0000   300.000
     18   -26.9002      3.000     13.000  28904.000      2.949    41.5367   -21.2400  -128.3998   -52.3886     0.0409     0.0130    10.0000     5.0000     5.0000    10.0000    12.0000     8.0000     8.0000    12.0000    90.0030    -0.0009     2.3314     0.0000     0.0000     0.0000    14.4503    14.4503     0.0000     0.0000     0.0000   300.000
     19   -26.9998      3.000     13.000  29292.000      2.989    41.5367   -21.2400  -128.3998   -52.3886     0.0409     0.0130    10.0000     5.0000     5.0000    10.0000    12.0000     8.0000     8.0000    12.0000    90.0030    -0.0009     2.3314     0.0000     0.0000     0.0000    14.4503    14.4503     0.0000     0.0000     0.0000   300.000
     20   -27.0996      3.000      9.000  28911.000      2.950    41.5367   -21.2400  -128.3998   -52.3886     0.0409     0.0130    10.0000     5.0000     5.0000    10.0000    12.0000     8.0000     8.0000    12.0000    90.0030    -0.0009     2.3314     0.0000     0.0000     0.0000    14.4503    14.4503     0.0000     0.0000     0.0000   300.000
     21   -27.1997      3.000      4.000  29010.000      2.960    41.5367   -21.2400  -128.3998   -52.3886     0.0409     0.0130    10.0000     5.0000     5.0000    10.0000    12.0000     8.0000     8.0000    12.0000    90.0030    -0.0009     2.3314     0.0000     0.0000     0.0000    14.4503    14.4503     0.0000     0.0000     0.0000   300.000
# Sum of Counts = 8177
# Center of Mass = -26.063989+/-0.407628
# Full Width Half-Maximum = 0.360577+/-0.209745
# 8:17:13 PM  4/15/2024   scan completed.
