# scan = 1974
# date = 4/15/2024
# time = 11:45:21 PM
# proposal = 33477
# experiment = Commissioning and enabling the 4-circle capability at VERITAS
# experiment_number = 1012
# command = scan s1 -14.97 -16.97 0.1
# builtin_command = scan s1 -14.97 -16.97 0.1
# users = Feng Ye, Mike McDowell, Adam Aczel, Bing Li, Wei Tian, Bing Li
# local_contact = Wei Tian, Adam Aczel
# scan_title = Nuclear_300K_2axis: (1.00 0.00 1.00 )
# monochromator = PG002
# analyzer = Pg002
# sense = +-+
# collimation = 40-40-40-80
# samplename = La2Ni7, Al-doped CuFeO2
# sampletype = crystal
# samplemosaic = 30.000000
# latticeconstants = 5.263000,5.582000,7.591000,90.000000,90.000000,90.000000
# ubmatrix = -0.000000,0.179117,-0.000000,-0.000000,0.003291,-0.000000,-0.000000,0.000127,-0.000000
# mode = 0
# plane_normal = -0.000714,0.000226,1.000000
# ubconf = UB15Apr2024_11557PM.ini
# preset_type = normal 
# preset_channel = time
# preset_value = 5.000000
# def_x = s1
# def_y = detector
# col_headers = 
#   Pt.         s1       time   detector    monitor        mcu         m2        chi        phi         s2        sgl        sgu   slitb_bt   slitb_lf   slitb_rt   slitb_tp   slita_bt   slita_lf   slita_rt   slita_tp         a1         a2          q          h          k          l         ei         ef          e    coldtip     sample       temp
      1   -14.9699      5.000     16.000  47821.000      4.880    41.5367   -64.1398    11.2100   -31.9373     0.0409     0.0130    10.0000     5.0000     5.0000    10.0000    12.0000     8.0000     8.0000    12.0000    90.0033    -0.0009     1.4530     0.0000     0.0000     0.0000    14.4503    14.4503     0.0000     0.0000     0.0000   300.000
      2   -15.0698      5.000     15.000  47835.000      4.881    41.5367   -64.1398    11.2100   -31.9373     0.0409     0.0130    10.0000     5.0000     5.0000    10.0000    12.0000     8.0000     8.0000    12.0000    90.0033    -0.0009     1.4530     0.0000     0.0000     0.0000    14.4503    14.4503     0.0000     0.0000     0.0000   300.000
      3   -15.1696      5.000     20.000  47653.000      4.863    41.5367   -64.1398    11.2100   -31.9373     0.0409     0.0130    10.0000     5.0000     5.0000    10.0000    12.0000     8.0000     8.0000    12.0000    90.0033    -0.0008     1.4530     0.0000     0.0000     0.0000    14.4503    14.4503     0.0000     0.0000     0.0000   300.000
      4   -15.2694      5.000     20.000  48015.000      4.899    41.5367   -64.1398    11.2100   -31.9373     0.0409     0.0130    10.0000     5.0000     5.0000    10.0000    12.0000     8.0000     8.0000    12.0000    90.0033    -0.0008     1.4530     0.0000     0.0000     0.0000    14.4503    14.4503     0.0000     0.0000     0.0000   300.000
      5   -15.3697      5.000     17.000  48164.000      4.915    41.5367   -64.1398    11.2100   -31.9373     0.0409     0.0130    10.0000     5.0000     5.0000    10.0000    12.0000     8.0000     8.0000    12.0000    90.0033    -0.0008     1.4530     0.0000     0.0000     0.0000    14.4503    14.4503     0.0000     0.0000     0.0000   300.000
      6   -15.4700      5.000     15.000  47913.000      4.889    41.5367   -64.1398    11.2100   -31.9372     0.0409     0.0130    10.0000     5.0000     5.0000    10.0000    12.0000     8.0000     8.0000    12.0000    90.0033    -0.0008     1.4530     0.0000     0.0000     0.0000    14.4503    14.4503     0.0000     0.0000     0.0000   300.000
      7   -15.5701      5.000     28.000  47754.000      4.873    41.5367   -64.1398    11.2100   -31.9372     0.0409     0.0130    10.0000     5.0000     5.0000    10.0000    12.0000     8.0000     8.0000    12.0000    90.0033    -0.0008     1.4530     0.0000     0.0000     0.0000    14.4503    14.4503     0.0000     0.0000     0.0000   300.000
      8   -15.6703      5.000    232.000  47793.000      4.877    41.5367   -64.1398    11.2100   -31.9372     0.0409     0.0130    10.0000     5.0000     5.0000    10.0000    12.0000     8.0000     8.0000    12.0000    90.0033    -0.0009     1.4530     0.0000     0.0000     0.0000    14.4503    14.4503     0.0000     0.0000     0.0000   300.000
      9   -15.7702      5.000    949.000  48160.000      4.914    41.5367   -64.1398    11.2100   -31.9372     0.0409     0.0130    10.0000     5.0000     5.0000    10.0000    12.0000     8.0000     8.0000    12.0000    90.0033    -0.0009     1.4530     0.0000     0.0000     0.0000    14.4503    14.4503     0.0000     0.0000     0.0000   300.000
     10   -15.8696      5.000   1935.000  48077.000      4.906    41.5367   -64.1398    11.2100   -31.9372     0.0409     0.0130    10.0000     5.0000     5.0000    10.0000    12.0000     8.0000     8.0000    12.0000    90.0033    -0.0008     1.4530     0.0000     0.0000     0.0000    14.4503    14.4503     0.0000     0.0000     0.0000   300.000
     11   -15.9702      5.000   2877.000  48153.000      4.914    41.5367   -64.1398    11.2100   -31.9372     0.0409     0.0130    10.0000     5.0000     5.0000    10.0000    12.0000     8.0000     8.0000    12.0000    90.0033    -0.0009     1.4530     0.0000     0.0000     0.0000    14.4503    14.4503     0.0000     0.0000     0.0000   300.000
     12   -16.0698      5.000   2979.000  48113.000      4.909    41.5367   -64.1398    11.2100   -31.9372     0.0409     0.0130    10.0000     5.0000     5.0000    10.0000    12.0000     8.0000     8.0000    12.0000    90.0033    -0.0009     1.4530     0.0000     0.0000     0.0000    14.4503    14.4503     0.0000     0.0000     0.0000   300.000
     13   -16.1696      5.000   2241.000  47897.000      4.887    41.5367   -64.1398    11.2100   -31.9372     0.0409     0.0130    10.0000     5.0000     5.0000    10.0000    12.0000     8.0000     8.0000    12.0000    90.0033    -0.0008     1.4530     0.0000     0.0000     0.0000    14.4503    14.4503     0.0000     0.0000     0.0000   300.000
     14   -16.2693      5.000    855.000  48338.000      4.932    41.5367   -64.1398    11.2100   -31.9372     0.0409     0.0130    10.0000     5.0000     5.0000    10.0000    12.0000     8.0000     8.0000    12.0000    90.0033    -0.0008     1.4530     0.0000     0.0000     0.0000    14.4503    14.4503     0.0000     0.0000     0.0000   300.000
     15   -16.3697      5.000    220.000  48372.000      4.936    41.5367   -64.1398    11.2100   -31.9372     0.0409     0.0130    10.0000     5.0000     5.0000    10.0000    12.0000     8.0000     8.0000    12.0000    90.0033    -0.0008     1.4530     0.0000     0.0000     0.0000    14.4503    14.4503     0.0000     0.0000     0.0000   300.000
     16   -16.4700      5.000     37.000  47998.000      4.898    41.5367   -64.1398    11.2100   -31.9372     0.0409     0.0130    10.0000     5.0000     5.0000    10.0000    12.0000     8.0000     8.0000    12.0000    90.0033    -0.0008     1.4530     0.0000     0.0000     0.0000    14.4503    14.4503     0.0000     0.0000     0.0000   300.000
     17   -16.5702      5.000     14.000  48257.000      4.924    41.5367   -64.1398    11.2100   -31.9372     0.0409     0.0130    10.0000     5.0000     5.0000    10.0000    12.0000     8.0000     8.0000    12.0000    90.0033    -0.0009     1.4530     0.0000     0.0000     0.0000    14.4503    14.4503     0.0000     0.0000     0.0000   300.000
     18   -16.6702      5.000     26.000  47956.000      4.893    41.5367   -64.1398    11.2100   -31.9372     0.0409     0.0130    10.0000     5.0000     5.0000    10.0000    12.0000     8.0000     8.0000    12.0000    90.0033    -0.0009     1.4530     0.0000     0.0000     0.0000    14.4503    14.4503     0.0000     0.0000     0.0000   300.000
     19   -16.7701      5.000     16.000  47708.000      4.868    41.5367   -64.1398    11.2100   -31.9372     0.0409     0.0130    10.0000     5.0000     5.0000    10.0000    12.0000     8.0000     8.0000    12.0000    90.0033    -0.0008     1.4530     0.0000     0.0000     0.0000    14.4503    14.4503     0.0000     0.0000     0.0000   300.000
     20   -16.8700      5.000     13.000  47752.000      4.873    41.5367   -64.1398    11.2100   -31.9372     0.0409     0.0130    10.0000     5.0000     5.0000    10.0000    12.0000     8.0000     8.0000    12.0000    90.0033    -0.0009     1.4530     0.0000     0.0000     0.0000    14.4503    14.4503     0.0000     0.0000     0.0000   300.000
     21   -16.9699      5.000     14.000  47725.000      4.870    41.5367   -64.1398    11.2100   -31.9372     0.0409     0.0130    10.0000     5.0000     5.0000    10.0000    12.0000     8.0000     8.0000    12.0000    90.0033    -0.0009     1.4530     0.0000     0.0000     0.0000    14.4503    14.4503     0.0000     0.0000     0.0000   300.000
# Sum of Counts = 12539
# Center of Mass = -16.020306+/-0.202334
# Full Width Half-Maximum = 0.359058+/-0.107372
# 11:48:23 PM  4/15/2024   scan completed.
