# scan = 39
# date = 4/9/2024
# time = 7:56:06 PM
# proposal = 33477
# experiment = Commissioning and enabling the 4-circle capability at VERITAS
# experiment_number = 1012
# command = scanrel s1 1 -1 0.1
# builtin_command = scan s1 @(s1)+1 @(s1)+-1 0.100000
# users = Feng Ye, Mike McDowell, Adam Aczel, Bing Li, Wei Tian, Bing Li
# local_contact = Wei Tian, Adam Aczel
# scan_title = La2Ni7-FC, (0 1 1), rocking
# monochromator = PG002
# analyzer = Pg002
# sense = +-+
# collimation = 40-40-40-80
# samplename = La2Ni7, Al-doped CuFeO2
# sampletype = crystal
# samplemosaic = 30.000000
# latticeconstants = 
# ubmatrix = 
# mode = 0
# plane_normal = 0.000000,0.000000,0.000000
# ubconf = /C/SPICE/User/exp1012/UBConf/UB09Apr2024_32926PM.ini
# preset_type = normal 
# preset_channel = mcu
# preset_value = 10.000000
# def_x = s1
# def_y = detector
# col_headers = 
#   Pt.         s1       time   detector    monitor        mcu         m2        chi        phi         s2        sgl        sgu   slitb_bt   slitb_lf   slitb_rt   slitb_tp   slita_bt   slita_lf   slita_rt   slita_tp         a1         a2          q          h          k          l         ei         ef          e
      1   -15.0550     11.598    122.000 106661.000     10.000    41.5367   -31.4860     5.8496   -32.1084     0.0409     0.0130    20.0000    10.0000    10.0000    20.0000    10.0000    10.0000    10.0000    10.0000    20.7601    -0.0007     1.4606     0.0000     0.0000     0.0000    14.4503    14.4503     0.000
      2   -15.1543     11.591     89.000 106661.000     10.000    41.5367   -31.4860     5.8496   -32.1084     0.0409     0.0130    20.0000    10.0000    10.0000    20.0000    10.0000    10.0000    10.0000    10.0000    20.7601    -0.0007     1.4606     0.0000     0.0000     0.0000    14.4503    14.4503     0.000
      3   -15.2546     11.541    138.000 106661.000     10.000    41.5367   -31.4860     5.8496   -32.1084     0.0409     0.0130    20.0000    10.0000    10.0000    20.0000    10.0000    10.0000    10.0000    10.0000    20.7601    -0.0007     1.4606     0.0000     0.0000     0.0000    14.4503    14.4503     0.000
      4   -15.3546     11.520    204.000 106661.000     10.000    41.5367   -31.4860     5.8496   -32.1084     0.0409     0.0130    20.0000    10.0000    10.0000    20.0000    10.0000    10.0000    10.0000    10.0000    20.7601    -0.0007     1.4606     0.0000     0.0000     0.0000    14.4503    14.4503     0.000
      5   -15.4551     11.541    282.000 106661.000     10.000    41.5367   -31.4860     5.8496   -32.1084     0.0409     0.0130    20.0000    10.0000    10.0000    20.0000    10.0000    10.0000    10.0000    10.0000    20.7601    -0.0007     1.4606     0.0000     0.0000     0.0000    14.4503    14.4503     0.000
      6   -15.5552     11.609   1151.000 106661.000     10.000    41.5367   -31.4860     5.8496   -32.1084     0.0409     0.0130    20.0000    10.0000    10.0000    20.0000    10.0000    10.0000    10.0000    10.0000    20.7601    -0.0007     1.4606     0.0000     0.0000     0.0000    14.4503    14.4503     0.000
      7   -15.6547     11.535   7691.000 106661.000     10.000    41.5367   -31.4860     5.8496   -32.1084     0.0409     0.0130    20.0000    10.0000    10.0000    20.0000    10.0000    10.0000    10.0000    10.0000    20.7601    -0.0007     1.4606     0.0000     0.0000     0.0000    14.4503    14.4503     0.000
      8   -15.7551     11.514  28481.000 106661.000     10.000    41.5367   -31.4860     5.8496   -32.1084     0.0409     0.0130    20.0000    10.0000    10.0000    20.0000    10.0000    10.0000    10.0000    10.0000    20.7601    -0.0007     1.4606     0.0000     0.0000     0.0000    14.4503    14.4503     0.000
      9   -15.8547     11.571  55296.000 106661.000     10.000    41.5367   -31.4860     5.8496   -32.1084     0.0409     0.0130    20.0000    10.0000    10.0000    20.0000    10.0000    10.0000    10.0000    10.0000    20.7601    -0.0007     1.4606     0.0000     0.0000     0.0000    14.4503    14.4503     0.000
     10   -15.9549     11.554  62076.000 106661.000     10.000    41.5367   -31.4860     5.8496   -32.1084     0.0409     0.0130    20.0000    10.0000    10.0000    20.0000    10.0000    10.0000    10.0000    10.0000    20.7601    -0.0007     1.4606     0.0000     0.0000     0.0000    14.4503    14.4503     0.000
     11   -16.0545     11.506  41191.000 106661.000     10.000    41.5367   -31.4860     5.8496   -32.1084     0.0409     0.0130    20.0000    10.0000    10.0000    20.0000    10.0000    10.0000    10.0000    10.0000    20.7601    -0.0007     1.4606     0.0000     0.0000     0.0000    14.4503    14.4503     0.000
     12   -16.1548     11.600  25038.000 106661.000     10.000    41.5367   -31.4860     5.8496   -32.1084     0.0409     0.0130    20.0000    10.0000    10.0000    20.0000    10.0000    10.0000    10.0000    10.0000    20.7601    -0.0007     1.4606     0.0000     0.0000     0.0000    14.4503    14.4503     0.000
     13   -16.2548     11.547  14790.000 106661.000     10.000    41.5367   -31.4860     5.8496   -32.1084     0.0409     0.0130    20.0000    10.0000    10.0000    20.0000    10.0000    10.0000    10.0000    10.0000    20.7601    -0.0007     1.4606     0.0000     0.0000     0.0000    14.4503    14.4503     0.000
     14   -16.3545     11.520   5848.000 106661.000     10.000    41.5367   -31.4860     5.8496   -32.1084     0.0409     0.0130    20.0000    10.0000    10.0000    20.0000    10.0000    10.0000    10.0000    10.0000    20.7601    -0.0007     1.4606     0.0000     0.0000     0.0000    14.4503    14.4503     0.000
     15   -16.4547     11.539   1686.000 106661.000     10.000    41.5367   -31.4860     5.8496   -32.1084     0.0409     0.0130    20.0000    10.0000    10.0000    20.0000    10.0000    10.0000    10.0000    10.0000    20.7601    -0.0007     1.4606     0.0000     0.0000     0.0000    14.4503    14.4503     0.000
     16   -16.5554     11.514    539.000 106661.000     10.000    41.5367   -31.4860     5.8496   -32.1084     0.0409     0.0130    20.0000    10.0000    10.0000    20.0000    10.0000    10.0000    10.0000    10.0000    20.7601    -0.0007     1.4606     0.0000     0.0000     0.0000    14.4503    14.4503     0.000
     17   -16.6547     11.512    289.000 106661.000     10.000    41.5367   -31.4860     5.8496   -32.1084     0.0409     0.0130    20.0000    10.0000    10.0000    20.0000    10.0000    10.0000    10.0000    10.0000    20.7601    -0.0007     1.4606     0.0000     0.0000     0.0000    14.4503    14.4503     0.000
     18   -16.7550     11.579    187.000 106661.000     10.000    41.5367   -31.4860     5.8496   -32.1084     0.0409     0.0130    20.0000    10.0000    10.0000    20.0000    10.0000    10.0000    10.0000    10.0000    20.7601    -0.0007     1.4606     0.0000     0.0000     0.0000    14.4503    14.4503     0.000
     19   -16.8551     11.524    186.000 106661.000     10.000    41.5367   -31.4860     5.8496   -32.1084     0.0409     0.0130    20.0000    10.0000    10.0000    20.0000    10.0000    10.0000    10.0000    10.0000    20.7601    -0.0007     1.4606     0.0000     0.0000     0.0000    14.4503    14.4503     0.000
     20   -16.9547     11.530    118.000 106661.000     10.000    41.5367   -31.4860     5.8496   -32.1084     0.0409     0.0130    20.0000    10.0000    10.0000    20.0000    10.0000    10.0000    10.0000    10.0000    20.7601    -0.0007     1.4606     0.0000     0.0000     0.0000    14.4503    14.4503     0.000
     21   -17.0547     11.546    123.000 106661.000     10.000    41.5367   -31.4860     5.8496   -32.1084     0.0409     0.0130    20.0000    10.0000    10.0000    20.0000    10.0000    10.0000    10.0000    10.0000    20.7601    -0.0007     1.4606     0.0000     0.0000     0.0000    14.4503    14.4503     0.000
# Sum of Counts = 245525
# Center of Mass = -15.968250+/-0.045576
# Full Width Half-Maximum = 0.357849+/-0.024696
# 8:00:22 PM  4/9/2024   scan completed.
