# scan = 2065
# date = 4/16/2024
# time = 7:35:52 AM
# proposal = 33477
# experiment = Commissioning and enabling the 4-circle capability at VERITAS
# experiment_number = 1012
# command = scan s1 -42.34 -44.34 0.1
# builtin_command = scan s1 -42.34 -44.34 0.1
# users = Feng Ye, Mike McDowell, Adam Aczel, Bing Li, Wei Tian, Bing Li
# local_contact = Wei Tian, Adam Aczel
# scan_title = Nuclear_300K_2axis: (2.00 1.00 3.00 )
# monochromator = PG002
# analyzer = Pg002
# sense = +-+
# collimation = 40-40-40-80
# samplename = La2Ni7, Al-doped CuFeO2
# sampletype = crystal
# samplemosaic = 30.000000
# latticeconstants = 5.263000,5.582000,7.591000,90.000000,90.000000,90.000000
# ubmatrix = -0.000000,0.179117,-0.000000,-0.000000,0.003291,-0.000000,-0.000000,0.000127,-0.000000
# mode = 0
# plane_normal = -0.000714,0.000226,1.000000
# ubconf = UB15Apr2024_11557PM.ini
# preset_type = normal 
# preset_channel = time
# preset_value = 10.000000
# def_x = s1
# def_y = detector
# col_headers = 
#   Pt.         s1       time   detector    monitor        mcu         m2        chi        phi         s2        sgl        sgu   slitb_bt   slitb_lf   slitb_rt   slitb_tp   slita_bt   slita_lf   slita_rt   slita_tp         a1         a2          q          h          k          l         ei         ef          e    coldtip     sample       temp
      1   -42.3400     10.000     15.000  95599.000      9.755    41.5367   -51.0210    43.2503   -86.6831     0.0409     0.0130    10.0000     5.0000     5.0000    10.0000    12.0000     8.0000     8.0000    12.0000    90.0029    -0.0010     3.6250     0.0000     0.0000     0.0000    14.4503    14.4503     0.0000     0.0000     0.0000   300.000
      2   -42.4396     10.000     21.000  95450.000      9.740    41.5367   -51.0210    43.2503   -86.6831     0.0409     0.0130    10.0000     5.0000     5.0000    10.0000    12.0000     8.0000     8.0000    12.0000    90.0029    -0.0010     3.6250     0.0000     0.0000     0.0000    14.4503    14.4503     0.0000     0.0000     0.0000   300.000
      3   -42.5403     10.000     20.000  95738.000      9.769    41.5367   -51.0210    43.2503   -86.6831     0.0409     0.0130    10.0000     5.0000     5.0000    10.0000    12.0000     8.0000     8.0000    12.0000    90.0029    -0.0009     3.6250     0.0000     0.0000     0.0000    14.4503    14.4503     0.0000     0.0000     0.0000   300.000
      4   -42.6401     10.000     24.000  95279.000      9.722    41.5367   -51.0210    43.2503   -86.6831     0.0409     0.0130    10.0000     5.0000     5.0000    10.0000    12.0000     8.0000     8.0000    12.0000    90.0029    -0.0010     3.6250     0.0000     0.0000     0.0000    14.4503    14.4503     0.0000     0.0000     0.0000   300.000
      5   -42.7401     10.000     24.000  95741.000      9.769    41.5367   -51.0210    43.2503   -86.6831     0.0409     0.0130    10.0000     5.0000     5.0000    10.0000    12.0000     8.0000     8.0000    12.0000    90.0029    -0.0010     3.6250     0.0000     0.0000     0.0000    14.4503    14.4503     0.0000     0.0000     0.0000   300.000
      6   -42.8401     10.000     29.000  95248.000      9.719    41.5367   -51.0210    43.2503   -86.6831     0.0409     0.0130    10.0000     5.0000     5.0000    10.0000    12.0000     8.0000     8.0000    12.0000    90.0029    -0.0009     3.6250     0.0000     0.0000     0.0000    14.4503    14.4503     0.0000     0.0000     0.0000   300.000
      7   -42.9398     10.000    106.000  95666.000      9.762    41.5367   -51.0210    43.2503   -86.6831     0.0409     0.0130    10.0000     5.0000     5.0000    10.0000    12.0000     8.0000     8.0000    12.0000    90.0029    -0.0010     3.6250     0.0000     0.0000     0.0000    14.4503    14.4503     0.0000     0.0000     0.0000   300.000
      8   -43.0399     10.000    416.000  95548.000      9.750    41.5367   -51.0210    43.2503   -86.6831     0.0409     0.0130    10.0000     5.0000     5.0000    10.0000    12.0000     8.0000     8.0000    12.0000    90.0029    -0.0009     3.6250     0.0000     0.0000     0.0000    14.4503    14.4503     0.0000     0.0000     0.0000   300.000
      9   -43.1398     10.000   1078.000  95957.000      9.792    41.5367   -51.0210    43.2503   -86.6831     0.0409     0.0130    10.0000     5.0000     5.0000    10.0000    12.0000     8.0000     8.0000    12.0000    90.0029    -0.0010     3.6250     0.0000     0.0000     0.0000    14.4503    14.4503     0.0000     0.0000     0.0000   300.000
     10   -43.2395     10.000   1553.000  95602.000      9.755    41.5367   -51.0210    43.2503   -86.6831     0.0409     0.0130    10.0000     5.0000     5.0000    10.0000    12.0000     8.0000     8.0000    12.0000    90.0029    -0.0010     3.6250     0.0000     0.0000     0.0000    14.4503    14.4503     0.0000     0.0000     0.0000   300.000
     11   -43.3394     10.000   1654.000  95614.000      9.757    41.5367   -51.0210    43.2503   -86.6831     0.0409     0.0130    10.0000     5.0000     5.0000    10.0000    12.0000     8.0000     8.0000    12.0000    90.0029    -0.0010     3.6250     0.0000     0.0000     0.0000    14.4503    14.4503     0.0000     0.0000     0.0000   300.000
     12   -43.4398     10.000   1220.000  95678.000      9.763    41.5367   -51.0210    43.2503   -86.6831     0.0409     0.0130    10.0000     5.0000     5.0000    10.0000    12.0000     8.0000     8.0000    12.0000    90.0029    -0.0009     3.6250     0.0000     0.0000     0.0000    14.4503    14.4503     0.0000     0.0000     0.0000   300.000
     13   -43.5403     10.000    595.000  95537.000      9.749    41.5367   -51.0210    43.2503   -86.6831     0.0409     0.0130    10.0000     5.0000     5.0000    10.0000    12.0000     8.0000     8.0000    12.0000    90.0029    -0.0009     3.6250     0.0000     0.0000     0.0000    14.4503    14.4503     0.0000     0.0000     0.0000   300.000
     14   -43.6402     10.000    187.000  95450.000      9.740    41.5367   -51.0210    43.2503   -86.6831     0.0409     0.0130    10.0000     5.0000     5.0000    10.0000    12.0000     8.0000     8.0000    12.0000    90.0029    -0.0009     3.6250     0.0000     0.0000     0.0000    14.4503    14.4503     0.0000     0.0000     0.0000   300.000
     15   -43.7400     10.000     39.000  95609.000      9.756    41.5367   -51.0210    43.2503   -86.6831     0.0409     0.0130    10.0000     5.0000     5.0000    10.0000    12.0000     8.0000     8.0000    12.0000    90.0029    -0.0010     3.6250     0.0000     0.0000     0.0000    14.4503    14.4503     0.0000     0.0000     0.0000   300.000
     16   -43.8401     10.000     28.000  96200.000      9.816    41.5367   -51.0210    43.2503   -86.6831     0.0409     0.0130    10.0000     5.0000     5.0000    10.0000    12.0000     8.0000     8.0000    12.0000    90.0029    -0.0010     3.6250     0.0000     0.0000     0.0000    14.4503    14.4503     0.0000     0.0000     0.0000   300.000
     17   -43.9398     10.000     22.000  96215.000      9.818    41.5367   -51.0210    43.2503   -86.6831     0.0409     0.0130    10.0000     5.0000     5.0000    10.0000    12.0000     8.0000     8.0000    12.0000    90.0029    -0.0009     3.6250     0.0000     0.0000     0.0000    14.4503    14.4503     0.0000     0.0000     0.0000   300.000
     18   -44.0399     10.000     26.000  95891.000      9.785    41.5367   -51.0210    43.2503   -86.6831     0.0409     0.0130    10.0000     5.0000     5.0000    10.0000    12.0000     8.0000     8.0000    12.0000    90.0029    -0.0009     3.6250     0.0000     0.0000     0.0000    14.4503    14.4503     0.0000     0.0000     0.0000   300.000
     19   -44.1399     10.000     15.000  95656.000      9.761    41.5367   -51.0210    43.2503   -86.6831     0.0409     0.0130    10.0000     5.0000     5.0000    10.0000    12.0000     8.0000     8.0000    12.0000    90.0029    -0.0010     3.6250     0.0000     0.0000     0.0000    14.4503    14.4503     0.0000     0.0000     0.0000   300.000
     20   -44.2396     10.000     26.000  95767.000      9.772    41.5367   -51.0210    43.2503   -86.6831     0.0409     0.0130    10.0000     5.0000     5.0000    10.0000    12.0000     8.0000     8.0000    12.0000    90.0029    -0.0010     3.6250     0.0000     0.0000     0.0000    14.4503    14.4503     0.0000     0.0000     0.0000   300.000
     21   -44.3395     10.000     21.000  95414.000      9.736    41.5367   -51.0210    43.2503   -86.6831     0.0409     0.0130    10.0000     5.0000     5.0000    10.0000    12.0000     8.0000     8.0000    12.0000    90.0029    -0.0009     3.6250     0.0000     0.0000     0.0000    14.4503    14.4503     0.0000     0.0000     0.0000   300.000
# Sum of Counts = 7119
# Center of Mass = -43.308915+/-0.725914
# Full Width Half-Maximum = 0.422235+/-0.325412
# 7:40:47 AM  4/16/2024   scan completed.
