# scan = 234
# date = 4/10/2024
# time = 5:59:30 PM
# proposal = 33477
# experiment = Commissioning and enabling the 4-circle capability at VERITAS
# experiment_number = 1012
# command = th2th 2 -2 0.2
# builtin_command = scan s2 @(s2)+2 @(s2)+-2 0.200000 s1 @(s1)+(2/2) @(s1)+(-2/2) 0.100000
# users = Feng Ye, Mike McDowell, Adam Aczel, Bing Li, Wei Tian, Bing Li
# local_contact = Wei Tian, Adam Aczel
# scan_title = Ruby-FC, look for [210]
# monochromator = PG002
# analyzer = Pg002
# sense = +-+
# collimation = 40-40-40-80
# samplename = La2Ni7, Al-doped CuFeO2
# sampletype = crystal
# samplemosaic = 30.000000
# latticeconstants = 13.706000,9.924000,7.024000,90.000000,90.000000,90.000000
# ubmatrix = -0.000052,0.100766,-0.000002,0.000016,0.000002,0.142369,0.072961,0.000072,-0.000032
# mode = 0
# plane_normal = -0.000714,0.000226,1.000000
# ubconf = UB10Apr2024_54240PM.ini
# preset_type = normal 
# preset_channel = time
# preset_value = 1.000000
# def_x = s2
# def_y = detector
# col_headers = 
#   Pt.         s2         s1       time   detector    monitor        mcu         m2        chi        phi        sgl        sgu   slitb_bt   slitb_lf   slitb_rt   slitb_tp   slita_bt   slita_lf   slita_rt   slita_tp         a1         a2          q          h          k          l         ei         ef          e
      1   -26.0691   -13.0362      1.000     25.000   9748.000      0.914    41.5367     0.0008  -177.2001     0.0409     0.0130    20.0000    10.0000    10.0000    20.0000    15.0000    10.0000    10.0000    15.0000    20.7606    -0.0009     1.1912     0.0000     1.8814     0.0000    14.4503    14.4503     0.000
      2   -26.2690   -13.1353      1.000     33.000   9629.000      0.903    41.5367     0.0008  -177.2001     0.0409     0.0130    20.0000    10.0000    10.0000    20.0000    15.0000    10.0000    10.0000    15.0000    20.7606    -0.0009     1.2002     0.0000     1.8956    -0.0000    14.4503    14.4503     0.000
      3   -26.4659   -13.2357      1.000     36.000   9734.000      0.913    41.5367     0.0008  -177.2001     0.0409     0.0130    20.0000    10.0000    10.0000    20.0000    15.0000    10.0000    10.0000    15.0000    20.7606    -0.0010     1.2090     0.0000     1.9096     0.0000    14.4503    14.4503     0.000
      4   -26.6650   -13.3356      1.000     52.000   9630.000      0.903    41.5367     0.0008  -177.2001     0.0409     0.0130    20.0000    10.0000    10.0000    20.0000    15.0000    10.0000    10.0000    15.0000    20.7606    -0.0010     1.2179     0.0000     1.9237     0.0001    14.4503    14.4503     0.000
      5   -26.8657   -13.4358      0.000      0.000      0.000      0.000    41.5367     0.0008  -177.2001     0.0409     0.0130    20.0000    10.0000    10.0000    20.0000    15.0000    10.0000    10.0000    15.0000    20.7606    -0.0010     1.2269     0.0000     1.9379     0.0000    14.4503    14.4503     0.000
# Sum of Counts = 146
# Center of Mass = -26.424362+/-3.092791
# Full Width Half-Maximum = 0.438711+/-3.138245
# 5:59:47 PM  4/10/2024   scan stopped!!
