# scan = 1968
# date = 4/15/2024
# time = 11:26:11 PM
# proposal = 33477
# experiment = Commissioning and enabling the 4-circle capability at VERITAS
# experiment_number = 1012
# command = scan s1 -19.37 -21.37 0.1
# builtin_command = scan s1 -19.37 -21.37 0.1
# users = Feng Ye, Mike McDowell, Adam Aczel, Bing Li, Wei Tian, Bing Li
# local_contact = Wei Tian, Adam Aczel
# scan_title = Nuclear_300K_2axis: (1.00 1.00 1.00 )
# monochromator = PG002
# analyzer = Pg002
# sense = +-+
# collimation = 40-40-40-80
# samplename = La2Ni7, Al-doped CuFeO2
# sampletype = crystal
# samplemosaic = 30.000000
# latticeconstants = 5.263000,5.582000,7.591000,90.000000,90.000000,90.000000
# ubmatrix = -0.000000,0.179117,-0.000000,-0.000000,0.003291,-0.000000,-0.000000,0.000127,-0.000000
# mode = 0
# plane_normal = -0.000714,0.000226,1.000000
# ubconf = UB15Apr2024_11557PM.ini
# preset_type = normal 
# preset_channel = time
# preset_value = 4.000000
# def_x = s1
# def_y = detector
# col_headers = 
#   Pt.         s1       time   detector    monitor        mcu         m2        chi        phi         s2        sgl        sgu   slitb_bt   slitb_lf   slitb_rt   slitb_tp   slita_bt   slita_lf   slita_rt   slita_tp         a1         a2          q          h          k          l         ei         ef          e    coldtip     sample       temp
      1   -19.3699      4.000     10.000  38408.000      3.919    41.5367   -48.6493    77.4900   -40.7401     0.0409     0.0130    10.0000     5.0000     5.0000    10.0000    12.0000     8.0000     8.0000    12.0000    90.0032    -0.0009     1.8384     0.0000     0.0000     0.0000    14.4503    14.4503     0.0000     0.0000     0.0000   300.000
      2   -19.4698      4.000      8.000  38748.000      3.954    41.5367   -48.6493    77.4900   -40.7401     0.0409     0.0130    10.0000     5.0000     5.0000    10.0000    12.0000     8.0000     8.0000    12.0000    90.0032    -0.0009     1.8384     0.0000     0.0000     0.0000    14.4503    14.4503     0.0000     0.0000     0.0000   300.000
      3   -19.5704      4.000     10.000  38279.000      3.906    41.5367   -48.6493    77.4900   -40.7401     0.0409     0.0130    10.0000     5.0000     5.0000    10.0000    12.0000     8.0000     8.0000    12.0000    90.0032    -0.0009     1.8384     0.0000     0.0000     0.0000    14.4503    14.4503     0.0000     0.0000     0.0000   300.000
      4   -19.6699      4.000      9.000  38782.000      3.957    41.5367   -48.6493    77.4900   -40.7401     0.0409     0.0130    10.0000     5.0000     5.0000    10.0000    12.0000     8.0000     8.0000    12.0000    90.0032    -0.0009     1.8384     0.0000     0.0000     0.0000    14.4503    14.4503     0.0000     0.0000     0.0000   300.000
      5   -19.7704      4.000     10.000  38269.000      3.905    41.5367   -48.6493    77.4900   -40.7401     0.0409     0.0130    10.0000     5.0000     5.0000    10.0000    12.0000     8.0000     8.0000    12.0000    90.0032    -0.0009     1.8384     0.0000     0.0000     0.0000    14.4503    14.4503     0.0000     0.0000     0.0000   300.000
      6   -19.8698      4.000     17.000  38558.000      3.934    41.5367   -48.6493    77.4900   -40.7401     0.0409     0.0130    10.0000     5.0000     5.0000    10.0000    12.0000     8.0000     8.0000    12.0000    90.0032    -0.0009     1.8384     0.0000     0.0000     0.0000    14.4503    14.4503     0.0000     0.0000     0.0000   300.000
      7   -19.9701      4.000     64.000  38189.000      3.897    41.5367   -48.6493    77.4900   -40.7401     0.0409     0.0130    10.0000     5.0000     5.0000    10.0000    12.0000     8.0000     8.0000    12.0000    90.0032    -0.0009     1.8384     0.0000     0.0000     0.0000    14.4503    14.4503     0.0000     0.0000     0.0000   300.000
      8   -20.0699      4.000    227.000  38563.000      3.935    41.5367   -48.6493    77.4900   -40.7401     0.0409     0.0130    10.0000     5.0000     5.0000    10.0000    12.0000     8.0000     8.0000    12.0000    90.0032    -0.0009     1.8384     0.0000     0.0000     0.0000    14.4503    14.4503     0.0000     0.0000     0.0000   300.000
      9   -20.1696      4.000    580.000  38307.000      3.909    41.5367   -48.6493    77.4900   -40.7401     0.0409     0.0130    10.0000     5.0000     5.0000    10.0000    12.0000     8.0000     8.0000    12.0000    90.0032    -0.0009     1.8384     0.0000     0.0000     0.0000    14.4503    14.4503     0.0000     0.0000     0.0000   300.000
     10   -20.2695      4.000    893.000  38282.000      3.906    41.5367   -48.6493    77.4900   -40.7401     0.0409     0.0130    10.0000     5.0000     5.0000    10.0000    12.0000     8.0000     8.0000    12.0000    90.0032    -0.0009     1.8384     0.0000     0.0000     0.0000    14.4503    14.4503     0.0000     0.0000     0.0000   300.000
     11   -20.3697      4.000   1052.000  38509.000      3.929    41.5367   -48.6493    77.4900   -40.7401     0.0409     0.0130    10.0000     5.0000     5.0000    10.0000    12.0000     8.0000     8.0000    12.0000    90.0032    -0.0009     1.8384     0.0000     0.0000     0.0000    14.4503    14.4503     0.0000     0.0000     0.0000   300.000
     12   -20.4701      4.000    724.000  38424.000      3.921    41.5367   -48.6493    77.4900   -40.7401     0.0409     0.0130    10.0000     5.0000     5.0000    10.0000    12.0000     8.0000     8.0000    12.0000    90.0032    -0.0009     1.8384     0.0000     0.0000     0.0000    14.4503    14.4503     0.0000     0.0000     0.0000   300.000
     13   -20.5702      4.000    337.000  38470.000      3.926    41.5367   -48.6493    77.4900   -40.7401     0.0409     0.0130    10.0000     5.0000     5.0000    10.0000    12.0000     8.0000     8.0000    12.0000    90.0032    -0.0009     1.8384     0.0000     0.0000     0.0000    14.4503    14.4503     0.0000     0.0000     0.0000   300.000
     14   -20.6701      4.000     87.000  38136.000      3.891    41.5367   -48.6493    77.4900   -40.7401     0.0409     0.0130    10.0000     5.0000     5.0000    10.0000    12.0000     8.0000     8.0000    12.0000    90.0032    -0.0009     1.8384     0.0000     0.0000     0.0000    14.4503    14.4503     0.0000     0.0000     0.0000   300.000
     15   -20.7702      4.000     19.000  38519.000      3.931    41.5367   -48.6493    77.4900   -40.7401     0.0409     0.0130    10.0000     5.0000     5.0000    10.0000    12.0000     8.0000     8.0000    12.0000    90.0032    -0.0009     1.8384     0.0000     0.0000     0.0000    14.4503    14.4503     0.0000     0.0000     0.0000   300.000
     16   -20.8699      4.000      9.000  38399.000      3.918    41.5367   -48.6493    77.4900   -40.7401     0.0409     0.0130    10.0000     5.0000     5.0000    10.0000    12.0000     8.0000     8.0000    12.0000    90.0032    -0.0009     1.8384     0.0000     0.0000     0.0000    14.4503    14.4503     0.0000     0.0000     0.0000   300.000
     17   -20.9701      4.000     13.000  38220.000      3.900    41.5367   -48.6493    77.4900   -40.7401     0.0409     0.0130    10.0000     5.0000     5.0000    10.0000    12.0000     8.0000     8.0000    12.0000    90.0032    -0.0009     1.8384     0.0000     0.0000     0.0000    14.4503    14.4503     0.0000     0.0000     0.0000   300.000
     18   -21.0699      4.000      8.000  38427.000      3.921    41.5367   -48.6493    77.4900   -40.7401     0.0409     0.0130    10.0000     5.0000     5.0000    10.0000    12.0000     8.0000     8.0000    12.0000    90.0032    -0.0009     1.8384     0.0000     0.0000     0.0000    14.4503    14.4503     0.0000     0.0000     0.0000   300.000
     19   -21.1697      4.000     20.000  38635.000      3.942    41.5367   -48.6493    77.4900   -40.7401     0.0409     0.0130    10.0000     5.0000     5.0000    10.0000    12.0000     8.0000     8.0000    12.0000    90.0032    -0.0009     1.8384     0.0000     0.0000     0.0000    14.4503    14.4503     0.0000     0.0000     0.0000   300.000
     20   -21.2696      4.000     11.000  38252.000      3.903    41.5367   -48.6493    77.4900   -40.7401     0.0409     0.0130    10.0000     5.0000     5.0000    10.0000    12.0000     8.0000     8.0000    12.0000    90.0032    -0.0009     1.8384     0.0000     0.0000     0.0000    14.4503    14.4503     0.0000     0.0000     0.0000   300.000
     21   -21.3696      4.000     12.000  38177.000      3.896    41.5367   -48.6493    77.4900   -40.7401     0.0409     0.0130    10.0000     5.0000     5.0000    10.0000    12.0000     8.0000     8.0000    12.0000    90.0032    -0.0009     1.8384     0.0000     0.0000     0.0000    14.4503    14.4503     0.0000     0.0000     0.0000   300.000
# Sum of Counts = 4120
# Center of Mass = -20.341706+/-0.448193
# Full Width Half-Maximum = 0.407459+/-0.202320
# 11:28:49 PM  4/15/2024   scan completed.
