# scan = 54
# date = 4/9/2024
# time = 9:07:01 PM
# proposal = 33477
# experiment = Commissioning and enabling the 4-circle capability at VERITAS
# experiment_number = 1012
# command = scanrel s1 1 -1 0.1
# builtin_command = scan s1 @(s1)+1 @(s1)+-1 0.100000
# users = Feng Ye, Mike McDowell, Adam Aczel, Bing Li, Wei Tian, Bing Li
# local_contact = Wei Tian, Adam Aczel
# scan_title = La2Ni7-FC, (1 0 -1), rocking
# monochromator = PG002
# analyzer = Pg002
# sense = +-+
# collimation = 40-40-40-80
# samplename = La2Ni7, Al-doped CuFeO2
# sampletype = crystal
# samplemosaic = 30.000000
# latticeconstants = 
# ubmatrix = 
# mode = 0
# plane_normal = 0.000000,0.000000,0.000000
# ubconf = /C/SPICE/User/exp1012/UBConf/UB09Apr2024_32926PM.ini
# preset_type = normal 
# preset_channel = mcu
# preset_value = 10.000000
# def_x = s1
# def_y = detector
# col_headers = 
#   Pt.         s1       time   detector    monitor        mcu         m2        chi        phi         s2        sgl        sgu   slitb_bt   slitb_lf   slitb_rt   slitb_tp   slita_bt   slita_lf   slita_rt   slita_tp         a1         a2          q          h          k          l         ei         ef          e
      1   -15.0538     11.444    116.000 106661.000     10.000    41.5367    28.5415   -14.2336   -32.1083     0.0409     0.0130    20.0000    10.0000    10.0000    20.0000    10.0000    10.0000    10.0000    10.0000    20.7602    -0.0007     1.4606     0.0000     0.0000     0.0000    14.4503    14.4503     0.000
      2   -15.1532     11.414    133.000 106661.000     10.000    41.5367    28.5415   -14.2336   -32.1083     0.0409     0.0130    20.0000    10.0000    10.0000    20.0000    10.0000    10.0000    10.0000    10.0000    20.7602    -0.0007     1.4606     0.0000     0.0000     0.0000    14.4503    14.4503     0.000
      3   -15.2537     11.412    203.000 106661.000     10.000    41.5367    28.5415   -14.2336   -32.1083     0.0409     0.0130    20.0000    10.0000    10.0000    20.0000    10.0000    10.0000    10.0000    10.0000    20.7602    -0.0007     1.4606     0.0000     0.0000     0.0000    14.4503    14.4503     0.000
      4   -15.3537     11.444    235.000 106661.000     10.000    41.5367    28.5415   -14.2336   -32.1083     0.0409     0.0130    20.0000    10.0000    10.0000    20.0000    10.0000    10.0000    10.0000    10.0000    20.7602    -0.0007     1.4606     0.0000     0.0000     0.0000    14.4503    14.4503     0.000
      5   -15.4540     11.432    298.000 106661.000     10.000    41.5367    28.5415   -14.2336   -32.1083     0.0409     0.0130    20.0000    10.0000    10.0000    20.0000    10.0000    10.0000    10.0000    10.0000    20.7602    -0.0007     1.4606     0.0000     0.0000     0.0000    14.4503    14.4503     0.000
      6   -15.5543     11.397    318.000 106661.000     10.000    41.5367    28.5415   -14.2336   -32.1083     0.0409     0.0130    20.0000    10.0000    10.0000    20.0000    10.0000    10.0000    10.0000    10.0000    20.7602    -0.0007     1.4606     0.0000     0.0000     0.0000    14.4503    14.4503     0.000
      7   -15.6540     11.400    446.000 106661.000     10.000    41.5367    28.5415   -14.2336   -32.1083     0.0409     0.0130    20.0000    10.0000    10.0000    20.0000    10.0000    10.0000    10.0000    10.0000    20.7602    -0.0007     1.4606     0.0000     0.0000     0.0000    14.4503    14.4503     0.000
      8   -15.7541     11.363    776.000 106661.000     10.000    41.5367    28.5415   -14.2336   -32.1083     0.0409     0.0130    20.0000    10.0000    10.0000    20.0000    10.0000    10.0000    10.0000    10.0000    20.7602    -0.0007     1.4606     0.0000     0.0000     0.0000    14.4503    14.4503     0.000
      9   -15.8536     11.363   2952.000 106661.000     10.000    41.5367    28.5415   -14.2336   -32.1083     0.0409     0.0130    20.0000    10.0000    10.0000    20.0000    10.0000    10.0000    10.0000    10.0000    20.7602    -0.0008     1.4606     0.0000     0.0000     0.0000    14.4503    14.4503     0.000
     10   -15.9539     11.357  15167.000 106661.000     10.000    41.5367    28.5415   -14.2336   -32.1083     0.0409     0.0130    20.0000    10.0000    10.0000    20.0000    10.0000    10.0000    10.0000    10.0000    20.7602    -0.0007     1.4606     0.0000     0.0000     0.0000    14.4503    14.4503     0.000
     11   -16.0536     11.399  42347.000 106661.000     10.000    41.5367    28.5415   -14.2336   -32.1083     0.0409     0.0130    20.0000    10.0000    10.0000    20.0000    10.0000    10.0000    10.0000    10.0000    20.7602    -0.0007     1.4606     0.0000     0.0000     0.0000    14.4503    14.4503     0.000
     12   -16.1537     11.402  68115.000 106661.000     10.000    41.5367    28.5415   -14.2336   -32.1083     0.0409     0.0130    20.0000    10.0000    10.0000    20.0000    10.0000    10.0000    10.0000    10.0000    20.7602    -0.0008     1.4606     0.0000     0.0000     0.0000    14.4503    14.4503     0.000
     13   -16.2534     11.415  67354.000 106661.000     10.000    41.5367    28.5415   -14.2336   -32.1083     0.0409     0.0130    20.0000    10.0000    10.0000    20.0000    10.0000    10.0000    10.0000    10.0000    20.7602    -0.0007     1.4606     0.0000     0.0000     0.0000    14.4503    14.4503     0.000
     14   -16.3535     11.458  40419.000 106661.000     10.000    41.5367    28.5415   -14.2336   -32.1083     0.0409     0.0130    20.0000    10.0000    10.0000    20.0000    10.0000    10.0000    10.0000    10.0000    20.7602    -0.0007     1.4606     0.0000     0.0000     0.0000    14.4503    14.4503     0.000
     15   -16.4540     11.446  18391.000 106661.000     10.000    41.5367    28.5415   -14.2336   -32.1083     0.0409     0.0130    20.0000    10.0000    10.0000    20.0000    10.0000    10.0000    10.0000    10.0000    20.7602    -0.0007     1.4606     0.0000     0.0000     0.0000    14.4503    14.4503     0.000
     16   -16.5540     11.375   8107.000 106661.000     10.000    41.5367    28.5415   -14.2336   -32.1083     0.0409     0.0130    20.0000    10.0000    10.0000    20.0000    10.0000    10.0000    10.0000    10.0000    20.7602    -0.0008     1.4606     0.0000     0.0000     0.0000    14.4503    14.4503     0.000
     17   -16.6543     11.438   3050.000 106661.000     10.000    41.5367    28.5415   -14.2336   -32.1083     0.0409     0.0130    20.0000    10.0000    10.0000    20.0000    10.0000    10.0000    10.0000    10.0000    20.7602    -0.0008     1.4606     0.0000     0.0000     0.0000    14.4503    14.4503     0.000
     18   -16.7540     11.395    902.000 106661.000     10.000    41.5367    28.5415   -14.2336   -32.1083     0.0409     0.0130    20.0000    10.0000    10.0000    20.0000    10.0000    10.0000    10.0000    10.0000    20.7602    -0.0007     1.4606     0.0000     0.0000     0.0000    14.4503    14.4503     0.000
     19   -16.8536     11.393    293.000 106661.000     10.000    41.5367    28.5415   -14.2336   -32.1083     0.0409     0.0130    20.0000    10.0000    10.0000    20.0000    10.0000    10.0000    10.0000    10.0000    20.7602    -0.0007     1.4606     0.0000     0.0000     0.0000    14.4503    14.4503     0.000
     20   -16.9540     11.350    174.000 106661.000     10.000    41.5367    28.5415   -14.2336   -32.1083     0.0409     0.0130    20.0000    10.0000    10.0000    20.0000    10.0000    10.0000    10.0000    10.0000    20.7602    -0.0008     1.4606     0.0000     0.0000     0.0000    14.4503    14.4503     0.000
     21   -17.0540     11.416    164.000 106661.000     10.000    41.5367    28.5415   -14.2336   -32.1083     0.0409     0.0130    20.0000    10.0000    10.0000    20.0000    10.0000    10.0000    10.0000    10.0000    20.7602    -0.0007     1.4606     0.0000     0.0000     0.0000    14.4503    14.4503     0.000
# Sum of Counts = 269960
# Center of Mass = -16.214452+/-0.044135
# Full Width Half-Maximum = 0.346454+/-0.023000
# 9:11:14 PM  4/9/2024   scan completed.
