# scan = 1832
# date = 4/15/2024
# time = 4:35:45 PM
# proposal = 33477
# experiment = Commissioning and enabling the 4-circle capability at VERITAS
# experiment_number = 1012
# command = th2th 2 -2 0.2
# builtin_command = scan s2 @(s2)+2 @(s2)+-2 0.200000 s1 @(s1)+(2/2) @(s1)+(-2/2) 0.100000
# users = Feng Ye, Mike McDowell, Adam Aczel, Bing Li, Wei Tian, Bing Li
# local_contact = Wei Tian, Adam Aczel
# scan_title = Nuclear_300K (1.00 -2.00 0.00 )
# monochromator = PG002
# analyzer = Pg002
# sense = +-+
# collimation = 40-40-40-80
# samplename = La2Ni7, Al-doped CuFeO2
# sampletype = crystal
# samplemosaic = 30.000000
# latticeconstants = 5.263000,5.582000,7.591000,90.000000,90.000000,90.000000
# ubmatrix = -0.000000,0.179117,-0.000000,-0.000000,0.003291,-0.000000,-0.000000,0.000127,-0.000000
# mode = 0
# plane_normal = -0.000714,0.000226,1.000000
# ubconf = UB15Apr2024_11557PM.ini
# preset_type = normal 
# preset_channel = mcu
# preset_value = 1.000000
# def_x = s2
# def_y = detector
# col_headers = 
#   Pt.         s2         s1       time   detector    monitor        mcu         m2        chi        phi        sgl        sgu   slitb_bt   slitb_lf   slitb_rt   slitb_tp   slita_bt   slita_lf   slita_rt   slita_tp         a1         a2          q          h          k          l         ei         ef          e    coldtip     sample       temp
      1   -55.7122   -28.1181      1.031      1.000   9801.000      1.000    41.5367   -24.1457   -75.5899     0.0409     0.0130    10.0000     5.0000     5.0000    10.0000    12.0000     8.0000     8.0000    12.0000    90.0028    -0.0009     2.4678     0.0000     0.0000     0.0000    14.4503    14.4503     0.0000     0.0000     0.0000   300.000
      2   -55.9132   -28.2176      1.013      2.000   9801.000      1.000    41.5367   -24.1457   -75.5899     0.0409     0.0130    10.0000     5.0000     5.0000    10.0000    12.0000     8.0000     8.0000    12.0000    90.0028    -0.0009     2.4760     0.0000     0.0000     0.0000    14.4503    14.4503     0.0000     0.0000     0.0000   300.000
      3   -56.1099   -28.3177      1.022      2.000   9801.000      1.000    41.5367   -24.1457   -75.5899     0.0409     0.0130    10.0000     5.0000     5.0000    10.0000    12.0000     8.0000     8.0000    12.0000    90.0028    -0.0009     2.4840     0.0000     0.0000     0.0000    14.4503    14.4503     0.0000     0.0000     0.0000   300.000
      4   -56.3098   -28.4178      1.021      3.000   9801.000      1.000    41.5367   -24.1457   -75.5899     0.0409     0.0130    10.0000     5.0000     5.0000    10.0000    12.0000     8.0000     8.0000    12.0000    90.0028    -0.0008     2.4921     0.0000     0.0000     0.0000    14.4503    14.4503     0.0000     0.0000     0.0000   300.000
      5   -56.5090   -28.5182      1.026     10.000   9801.000      1.000    41.5367   -24.1457   -75.5899     0.0409     0.0130    10.0000     5.0000     5.0000    10.0000    12.0000     8.0000     8.0000    12.0000    90.0028    -0.0008     2.5002     0.0000     0.0000     0.0000    14.4503    14.4503     0.0000     0.0000     0.0000   300.000
      6   -56.7093   -28.6185      1.035     58.000   9801.000      1.000    41.5367   -24.1457   -75.5899     0.0409     0.0130    10.0000     5.0000     5.0000    10.0000    12.0000     8.0000     8.0000    12.0000    90.0028    -0.0008     2.5083     0.0000     0.0000     0.0000    14.4503    14.4503     0.0000     0.0000     0.0000   300.000
      7   -56.9102   -28.7184      1.043    162.000   9801.000      1.000    41.5367   -24.1457   -75.5899     0.0409     0.0130    10.0000     5.0000     5.0000    10.0000    12.0000     8.0000     8.0000    12.0000    90.0028    -0.0008     2.5165     0.0000     0.0000     0.0000    14.4503    14.4503     0.0000     0.0000     0.0000   300.000
      8   -57.1157   -28.8184      1.037    209.000   9801.000      1.000    41.5367   -24.1457   -75.5899     0.0409     0.0130    10.0000     5.0000     5.0000    10.0000    12.0000     8.0000     8.0000    12.0000    90.0028    -0.0008     2.5248     0.0000     0.0000     0.0000    14.4503    14.4503     0.0000     0.0000     0.0000   300.000
      9   -57.3140   -28.9180      1.038    274.000   9801.000      1.000    41.5367   -24.1457   -75.5899     0.0409     0.0130    10.0000     5.0000     5.0000    10.0000    12.0000     8.0000     8.0000    12.0000    90.0027    -0.0008     2.5328     0.0000     0.0000     0.0000    14.4503    14.4503     0.0000     0.0000     0.0000   300.000
     10   -57.5133   -29.0181      1.024    280.000   9801.000      1.000    41.5367   -24.1457   -75.5899     0.0409     0.0130    10.0000     5.0000     5.0000    10.0000    12.0000     8.0000     8.0000    12.0000    90.0027    -0.0008     2.5409     0.0000     0.0000     0.0000    14.4503    14.4503     0.0000     0.0000     0.0000   300.000
     11   -57.7125   -29.1180      1.046    235.000   9801.000      1.000    41.5367   -24.1457   -75.5899     0.0409     0.0130    10.0000     5.0000     5.0000    10.0000    12.0000     8.0000     8.0000    12.0000    90.0027    -0.0009     2.5489     0.0000     0.0000     0.0000    14.4503    14.4503     0.0000     0.0000     0.0000   300.000
     12   -57.9105   -29.2177      1.020    203.000   9801.000      1.000    41.5367   -24.1457   -75.5899     0.0409     0.0130    10.0000     5.0000     5.0000    10.0000    12.0000     8.0000     8.0000    12.0000    90.0027    -0.0008     2.5569     0.0000     0.0000     0.0000    14.4503    14.4503     0.0000     0.0000     0.0000   300.000
     13   -58.1126   -29.3177      1.020    195.000   9801.000      1.000    41.5367   -24.1457   -75.5899     0.0409     0.0130    10.0000     5.0000     5.0000    10.0000    12.0000     8.0000     8.0000    12.0000    90.0027    -0.0008     2.5651     0.0000     0.0000     0.0000    14.4503    14.4503     0.0000     0.0000     0.0000   300.000
     14   -58.3105   -29.4179      1.031     91.000   9801.000      1.000    41.5367   -24.1457   -75.5899     0.0409     0.0130    10.0000     5.0000     5.0000    10.0000    12.0000     8.0000     8.0000    12.0000    90.0027    -0.0008     2.5730     0.0000     0.0000     0.0000    14.4503    14.4503     0.0000     0.0000     0.0000   300.000
     15   -58.5118   -29.5181      1.026     39.000   9801.000      1.000    41.5367   -24.1457   -75.5899     0.0409     0.0130    10.0000     5.0000     5.0000    10.0000    12.0000     8.0000     8.0000    12.0000    90.0027    -0.0008     2.5811     0.0000     0.0000     0.0000    14.4503    14.4503     0.0000     0.0000     0.0000   300.000
     16   -58.7126   -29.6184      1.012      5.000   9801.000      1.000    41.5367   -24.1457   -75.5899     0.0409     0.0130    10.0000     5.0000     5.0000    10.0000    12.0000     8.0000     8.0000    12.0000    90.0027    -0.0008     2.5892     0.0000     0.0000     0.0000    14.4503    14.4503     0.0000     0.0000     0.0000   300.000
     17   -58.9136   -29.7184      1.024      4.000   9801.000      1.000    41.5367   -24.1457   -75.5899     0.0409     0.0130    10.0000     5.0000     5.0000    10.0000    12.0000     8.0000     8.0000    12.0000    90.0027    -0.0008     2.5973     0.0000     0.0000     0.0000    14.4503    14.4503     0.0000     0.0000     0.0000   300.000
     18   -59.1130   -29.8182      1.028      5.000   9801.000      1.000    41.5367   -24.1457   -75.5899     0.0409     0.0130    10.0000     5.0000     5.0000    10.0000    12.0000     8.0000     8.0000    12.0000    90.0027    -0.0008     2.6053     0.0000     0.0000     0.0000    14.4503    14.4503     0.0000     0.0000     0.0000   300.000
     19   -59.3087   -29.9180      1.040      2.000   9801.000      1.000    41.5367   -24.1457   -75.5899     0.0409     0.0130    10.0000     5.0000     5.0000    10.0000    12.0000     8.0000     8.0000    12.0000    90.0027    -0.0008     2.6131     0.0000     0.0000     0.0000    14.4503    14.4503     0.0000     0.0000     0.0000   300.000
     20   -59.5081   -30.0181      1.028      1.000   9801.000      1.000    41.5367   -24.1457   -75.5899     0.0409     0.0130    10.0000     5.0000     5.0000    10.0000    12.0000     8.0000     8.0000    12.0000    90.0027    -0.0008     2.6211     0.0000     0.0000     0.0000    14.4503    14.4503     0.0000     0.0000     0.0000   300.000
     21   -59.7096   -30.1179      1.040      2.000   9801.000      1.000    41.5367   -24.1457   -75.5899     0.0409     0.0130    10.0000     5.0000     5.0000    10.0000    12.0000     8.0000     8.0000    12.0000    90.0027    -0.0008     2.6292     0.0000     0.0000     0.0000    14.4503    14.4503     0.0000     0.0000     0.0000   300.000
# Sum of Counts = 1783
# Center of Mass = -57.559215+/-1.927800
# Full Width Half-Maximum = 0.969905+/-1.008685
# 4:37:43 PM  4/15/2024   scan completed.
