# scan = 1917
# date = 4/15/2024
# time = 8:40:41 PM
# proposal = 33477
# experiment = Commissioning and enabling the 4-circle capability at VERITAS
# experiment_number = 1012
# command = scan s1 -41.71 -43.71 0.1
# builtin_command = scan s1 -41.71 -43.71 0.1
# users = Feng Ye, Mike McDowell, Adam Aczel, Bing Li, Wei Tian, Bing Li
# local_contact = Wei Tian, Adam Aczel
# scan_title = Nuclear_300K_2axis: (-1.00 -3.00 0.00 )
# monochromator = PG002
# analyzer = Pg002
# sense = +-+
# collimation = 40-40-40-80
# samplename = La2Ni7, Al-doped CuFeO2
# sampletype = crystal
# samplemosaic = 30.000000
# latticeconstants = 5.263000,5.582000,7.591000,90.000000,90.000000,90.000000
# ubmatrix = -0.000000,0.179117,-0.000000,-0.000000,0.003291,-0.000000,-0.000000,0.000127,-0.000000
# mode = 0
# plane_normal = -0.000714,0.000226,1.000000
# ubconf = UB15Apr2024_11557PM.ini
# preset_type = normal 
# preset_channel = time
# preset_value = 3.000000
# def_x = s1
# def_y = detector
# col_headers = 
#   Pt.         s1       time   detector    monitor        mcu         m2        chi        phi         s2        sgl        sgu   slitb_bt   slitb_lf   slitb_rt   slitb_tp   slita_bt   slita_lf   slita_rt   slita_tp         a1         a2          q          h          k          l         ei         ef          e    coldtip     sample       temp
      1   -41.7101      3.000      5.000  28946.000      2.954    41.5367    22.9210   -68.0601   -85.4254     0.0409     0.0130    10.0000     5.0000     5.0000    10.0000    12.0000     8.0000     8.0000    12.0000    90.0029    -0.0009     3.5826     0.0000     0.0000     0.0000    14.4503    14.4503     0.0000     0.0000     0.0000   300.000
      2   -41.8101      3.000      6.000  28787.000      2.937    41.5367    22.9210   -68.0601   -85.4254     0.0409     0.0130    10.0000     5.0000     5.0000    10.0000    12.0000     8.0000     8.0000    12.0000    90.0029    -0.0009     3.5826     0.0000     0.0000     0.0000    14.4503    14.4503     0.0000     0.0000     0.0000   300.000
      3   -41.9096      3.000     10.000  28745.000      2.933    41.5367    22.9210   -68.0601   -85.4254     0.0409     0.0130    10.0000     5.0000     5.0000    10.0000    12.0000     8.0000     8.0000    12.0000    90.0029    -0.0009     3.5826     0.0000     0.0000     0.0000    14.4503    14.4503     0.0000     0.0000     0.0000   300.000
      4   -42.0102      3.000      8.000  28702.000      2.929    41.5367    22.9210   -68.0601   -85.4254     0.0409     0.0130    10.0000     5.0000     5.0000    10.0000    12.0000     8.0000     8.0000    12.0000    90.0029    -0.0009     3.5826     0.0000     0.0000     0.0000    14.4503    14.4503     0.0000     0.0000     0.0000   300.000
      5   -42.1101      3.000      9.000  28726.000      2.931    41.5367    22.9210   -68.0601   -85.4254     0.0409     0.0130    10.0000     5.0000     5.0000    10.0000    12.0000     8.0000     8.0000    12.0000    90.0029    -0.0009     3.5826     0.0000     0.0000     0.0000    14.4503    14.4503     0.0000     0.0000     0.0000   300.000
      6   -42.2092      3.000     19.000  29034.000      2.963    41.5367    22.9210   -68.0601   -85.4254     0.0409     0.0130    10.0000     5.0000     5.0000    10.0000    12.0000     8.0000     8.0000    12.0000    90.0029    -0.0009     3.5826     0.0000     0.0000     0.0000    14.4503    14.4503     0.0000     0.0000     0.0000   300.000
      7   -42.3095      3.000    133.000  29216.000      2.981    41.5367    22.9210   -68.0601   -85.4254     0.0409     0.0130    10.0000     5.0000     5.0000    10.0000    12.0000     8.0000     8.0000    12.0000    90.0029    -0.0009     3.5826     0.0000     0.0000     0.0000    14.4503    14.4503     0.0000     0.0000     0.0000   300.000
      8   -42.4096      3.000    447.000  28671.000      2.926    41.5367    22.9210   -68.0601   -85.4254     0.0409     0.0130    10.0000     5.0000     5.0000    10.0000    12.0000     8.0000     8.0000    12.0000    90.0029    -0.0009     3.5826     0.0000     0.0000     0.0000    14.4503    14.4503     0.0000     0.0000     0.0000   300.000
      9   -42.5100      3.000    922.000  28656.000      2.924    41.5367    22.9210   -68.0601   -85.4254     0.0409     0.0130    10.0000     5.0000     5.0000    10.0000    12.0000     8.0000     8.0000    12.0000    90.0029    -0.0009     3.5826     0.0000     0.0000     0.0000    14.4503    14.4503     0.0000     0.0000     0.0000   300.000
     10   -42.6104      3.000   1068.000  28850.000      2.944    41.5367    22.9210   -68.0601   -85.4254     0.0409     0.0130    10.0000     5.0000     5.0000    10.0000    12.0000     8.0000     8.0000    12.0000    90.0029    -0.0009     3.5826     0.0000     0.0000     0.0000    14.4503    14.4503     0.0000     0.0000     0.0000   300.000
     11   -42.7102      3.000    878.000  29004.000      2.960    41.5367    22.9210   -68.0601   -85.4254     0.0409     0.0130    10.0000     5.0000     5.0000    10.0000    12.0000     8.0000     8.0000    12.0000    90.0029    -0.0009     3.5826     0.0000     0.0000     0.0000    14.4503    14.4503     0.0000     0.0000     0.0000   300.000
     12   -42.8101      3.000    455.000  28811.000      2.940    41.5367    22.9210   -68.0601   -85.4254     0.0409     0.0130    10.0000     5.0000     5.0000    10.0000    12.0000     8.0000     8.0000    12.0000    90.0029    -0.0009     3.5826     0.0000     0.0000     0.0000    14.4503    14.4503     0.0000     0.0000     0.0000   300.000
     13   -42.9097      3.000    136.000  28764.000      2.935    41.5367    22.9210   -68.0601   -85.4254     0.0409     0.0130    10.0000     5.0000     5.0000    10.0000    12.0000     8.0000     8.0000    12.0000    90.0029    -0.0009     3.5826     0.0000     0.0000     0.0000    14.4503    14.4503     0.0000     0.0000     0.0000   300.000
     14   -43.0100      3.000     25.000  28564.000      2.915    41.5367    22.9210   -68.0601   -85.4254     0.0409     0.0130    10.0000     5.0000     5.0000    10.0000    12.0000     8.0000     8.0000    12.0000    90.0029    -0.0009     3.5826     0.0000     0.0000     0.0000    14.4503    14.4503     0.0000     0.0000     0.0000   300.000
     15   -43.1099      3.000     10.000  28582.000      2.917    41.5367    22.9210   -68.0601   -85.4254     0.0409     0.0130    10.0000     5.0000     5.0000    10.0000    12.0000     8.0000     8.0000    12.0000    90.0029    -0.0009     3.5826     0.0000     0.0000     0.0000    14.4503    14.4503     0.0000     0.0000     0.0000   300.000
     16   -43.2095      3.000     14.000  29137.000      2.973    41.5367    22.9210   -68.0601   -85.4254     0.0409     0.0130    10.0000     5.0000     5.0000    10.0000    12.0000     8.0000     8.0000    12.0000    90.0029    -0.0009     3.5826     0.0000     0.0000     0.0000    14.4503    14.4503     0.0000     0.0000     0.0000   300.000
     17   -43.3094      3.000      6.000  28840.000      2.943    41.5367    22.9210   -68.0601   -85.4254     0.0409     0.0130    10.0000     5.0000     5.0000    10.0000    12.0000     8.0000     8.0000    12.0000    90.0029    -0.0009     3.5826     0.0000     0.0000     0.0000    14.4503    14.4503     0.0000     0.0000     0.0000   300.000
     18   -43.4096      3.000      6.000  28808.000      2.940    41.5367    22.9210   -68.0601   -85.4254     0.0409     0.0130    10.0000     5.0000     5.0000    10.0000    12.0000     8.0000     8.0000    12.0000    90.0029    -0.0009     3.5826     0.0000     0.0000     0.0000    14.4503    14.4503     0.0000     0.0000     0.0000   300.000
     19   -43.5101      3.000      4.000  28514.000      2.910    41.5367    22.9210   -68.0601   -85.4254     0.0409     0.0130    10.0000     5.0000     5.0000    10.0000    12.0000     8.0000     8.0000    12.0000    90.0029    -0.0009     3.5826     0.0000     0.0000     0.0000    14.4503    14.4503     0.0000     0.0000     0.0000   300.000
     20   -43.6103      3.000      5.000  29100.000      2.969    41.5367    22.9210   -68.0601   -85.4254     0.0409     0.0130    10.0000     5.0000     5.0000    10.0000    12.0000     8.0000     8.0000    12.0000    90.0029    -0.0009     3.5826     0.0000     0.0000     0.0000    14.4503    14.4503     0.0000     0.0000     0.0000   300.000
     21   -43.7102      3.000      5.000  28931.000      2.952    41.5367    22.9210   -68.0601   -85.4254     0.0409     0.0130    10.0000     5.0000     5.0000    10.0000    12.0000     8.0000     8.0000    12.0000    90.0029    -0.0009     3.5826     0.0000     0.0000     0.0000    14.4503    14.4503     0.0000     0.0000     0.0000   300.000
# Sum of Counts = 4171
# Center of Mass = -42.612814+/-0.933119
# Full Width Half-Maximum = 0.355750+/-0.479773
# 8:43:00 PM  4/15/2024   scan completed.
