# scan = 72
# date = 4/9/2024
# time = 10:38:44 PM
# proposal = 33477
# experiment = Commissioning and enabling the 4-circle capability at VERITAS
# experiment_number = 1012
# command = scanrel s1 1 -1 0.1
# builtin_command = scan s1 @(s1)+1 @(s1)+-1 0.100000
# users = Feng Ye, Mike McDowell, Adam Aczel, Bing Li, Wei Tian, Bing Li
# local_contact = Wei Tian, Adam Aczel
# scan_title = La2Ni7-FC, (-1 0 7), rocking
# monochromator = PG002
# analyzer = Pg002
# sense = +-+
# collimation = 40-40-40-80
# samplename = La2Ni7, Al-doped CuFeO2
# sampletype = crystal
# samplemosaic = 30.000000
# latticeconstants = 
# ubmatrix = 
# mode = 0
# plane_normal = 0.000000,0.000000,0.000000
# ubconf = /C/SPICE/User/exp1012/UBConf/UB09Apr2024_32926PM.ini
# preset_type = normal 
# preset_channel = mcu
# preset_value = 10.000000
# def_x = s1
# def_y = detector
# col_headers = 
#   Pt.         s1       time   detector    monitor        mcu         m2        chi        phi         s2        sgl        sgu   slitb_bt   slitb_lf   slitb_rt   slitb_tp   slita_bt   slita_lf   slita_rt   slita_tp         a1         a2          q          h          k          l         ei         ef          e
      1   -24.7665     11.342     83.000 106661.000     10.000    41.5367   -19.6595   121.5002   -51.5313     0.0409     0.0130    20.0000    10.0000    10.0000    20.0000    10.0000    10.0000    10.0000    10.0000    20.7601    -0.0009     2.2958     0.0000     0.0000     0.0000    14.4503    14.4503     0.000
      2   -24.8660     11.350     68.000 106661.000     10.000    41.5367   -19.6595   121.5002   -51.5313     0.0409     0.0130    20.0000    10.0000    10.0000    20.0000    10.0000    10.0000    10.0000    10.0000    20.7601    -0.0009     2.2958     0.0000     0.0000     0.0000    14.4503    14.4503     0.000
      3   -24.9660     11.332    107.000 106661.000     10.000    41.5367   -19.6595   121.5002   -51.5313     0.0409     0.0130    20.0000    10.0000    10.0000    20.0000    10.0000    10.0000    10.0000    10.0000    20.7601    -0.0009     2.2958     0.0000     0.0000     0.0000    14.4503    14.4503     0.000
      4   -25.0658     11.315    155.000 106661.000     10.000    41.5367   -19.6595   121.5002   -51.5313     0.0409     0.0130    20.0000    10.0000    10.0000    20.0000    10.0000    10.0000    10.0000    10.0000    20.7601    -0.0009     2.2958     0.0000     0.0000     0.0000    14.4503    14.4503     0.000
      5   -25.1658     11.327    194.000 106661.000     10.000    41.5367   -19.6595   121.5002   -51.5313     0.0409     0.0130    20.0000    10.0000    10.0000    20.0000    10.0000    10.0000    10.0000    10.0000    20.7601    -0.0009     2.2958     0.0000     0.0000     0.0000    14.4503    14.4503     0.000
      6   -25.2658     11.362    355.000 106661.000     10.000    41.5367   -19.6595   121.5002   -51.5313     0.0409     0.0130    20.0000    10.0000    10.0000    20.0000    10.0000    10.0000    10.0000    10.0000    20.7601    -0.0009     2.2958     0.0000     0.0000     0.0000    14.4503    14.4503     0.000
      7   -25.3657     11.337    726.000 106661.000     10.000    41.5367   -19.6595   121.5002   -51.5313     0.0409     0.0130    20.0000    10.0000    10.0000    20.0000    10.0000    10.0000    10.0000    10.0000    20.7601    -0.0009     2.2958     0.0000     0.0000     0.0000    14.4503    14.4503     0.000
      8   -25.4662     11.330   3364.000 106661.000     10.000    41.5367   -19.6595   121.5002   -51.5313     0.0409     0.0130    20.0000    10.0000    10.0000    20.0000    10.0000    10.0000    10.0000    10.0000    20.7601    -0.0009     2.2958     0.0000     0.0000     0.0000    14.4503    14.4503     0.000
      9   -25.5667     11.286  15668.000 106661.000     10.000    41.5367   -19.6595   121.5002   -51.5313     0.0409     0.0130    20.0000    10.0000    10.0000    20.0000    10.0000    10.0000    10.0000    10.0000    20.7601    -0.0009     2.2958     0.0000     0.0000     0.0000    14.4503    14.4503     0.000
     10   -25.6660     11.380  39505.000 106661.000     10.000    41.5367   -19.6595   121.5002   -51.5313     0.0409     0.0130    20.0000    10.0000    10.0000    20.0000    10.0000    10.0000    10.0000    10.0000    20.7601    -0.0009     2.2958     0.0000     0.0000     0.0000    14.4503    14.4503     0.000
     11   -25.7660     11.281  60253.000 106661.000     10.000    41.5367   -19.6595   121.5002   -51.5313     0.0409     0.0130    20.0000    10.0000    10.0000    20.0000    10.0000    10.0000    10.0000    10.0000    20.7601    -0.0009     2.2958     0.0000     0.0000     0.0000    14.4503    14.4503     0.000
     12   -25.8662     11.328  60947.000 106661.000     10.000    41.5367   -19.6595   121.5002   -51.5313     0.0409     0.0130    20.0000    10.0000    10.0000    20.0000    10.0000    10.0000    10.0000    10.0000    20.7601    -0.0009     2.2958     0.0000     0.0000     0.0000    14.4503    14.4503     0.000
     13   -25.9658     11.326  38794.000 106661.000     10.000    41.5367   -19.6595   121.5002   -51.5313     0.0409     0.0130    20.0000    10.0000    10.0000    20.0000    10.0000    10.0000    10.0000    10.0000    20.7601    -0.0009     2.2958     0.0000     0.0000     0.0000    14.4503    14.4503     0.000
     14   -26.0662     11.401  14669.000 106661.000     10.000    41.5367   -19.6595   121.5002   -51.5313     0.0409     0.0130    20.0000    10.0000    10.0000    20.0000    10.0000    10.0000    10.0000    10.0000    20.7601    -0.0009     2.2958     0.0000     0.0000     0.0000    14.4503    14.4503     0.000
     15   -26.1657     11.325   4037.000 106661.000     10.000    41.5367   -19.6595   121.5002   -51.5313     0.0409     0.0130    20.0000    10.0000    10.0000    20.0000    10.0000    10.0000    10.0000    10.0000    20.7601    -0.0009     2.2958     0.0000     0.0000     0.0000    14.4503    14.4503     0.000
     16   -26.2656     11.267   1238.000 106661.000     10.000    41.5367   -19.6595   121.5002   -51.5313     0.0409     0.0130    20.0000    10.0000    10.0000    20.0000    10.0000    10.0000    10.0000    10.0000    20.7601    -0.0009     2.2958     0.0000     0.0000     0.0000    14.4503    14.4503     0.000
     17   -26.3658     11.317    412.000 106661.000     10.000    41.5367   -19.6595   121.5002   -51.5312     0.0409     0.0130    20.0000    10.0000    10.0000    20.0000    10.0000    10.0000    10.0000    10.0000    20.7601    -0.0009     2.2958     0.0000     0.0000     0.0000    14.4503    14.4503     0.000
     18   -26.4660     11.297    185.000 106661.000     10.000    41.5367   -19.6595   121.5002   -51.5312     0.0409     0.0130    20.0000    10.0000    10.0000    20.0000    10.0000    10.0000    10.0000    10.0000    20.7601    -0.0009     2.2958     0.0000     0.0000     0.0000    14.4503    14.4503     0.000
     19   -26.5665     11.310    145.000 106661.000     10.000    41.5367   -19.6595   121.5002   -51.5313     0.0409     0.0130    20.0000    10.0000    10.0000    20.0000    10.0000    10.0000    10.0000    10.0000    20.7601    -0.0009     2.2958     0.0000     0.0000     0.0000    14.4503    14.4503     0.000
     20   -26.6663     11.342    125.000 106661.000     10.000    41.5367   -19.6595   121.5002   -51.5313     0.0409     0.0130    20.0000    10.0000    10.0000    20.0000    10.0000    10.0000    10.0000    10.0000    20.7601    -0.0009     2.2958     0.0000     0.0000     0.0000    14.4503    14.4503     0.000
     21   -26.7658     11.249     99.000 106661.000     10.000    41.5367   -19.6595   121.5002   -51.5312     0.0409     0.0130    20.0000    10.0000    10.0000    20.0000    10.0000    10.0000    10.0000    10.0000    20.7601    -0.0009     2.2958     0.0000     0.0000     0.0000    14.4503    14.4503     0.000
# Sum of Counts = 241129
# Center of Mass = -25.816567+/-0.074352
# Full Width Half-Maximum = 0.321457+/-0.042048
# 10:42:56 PM  4/9/2024   scan completed.
