# scan = 560
# date = 5/27/2023
# time = 9:04:06 PM
# proposal = 9879
# experiment = HB-1A  - Backend upgrade commissioning
# experiment_number = 978
# command = th2th 3 -3 0.15
# builtin_command = scan s2 @(s2)+3 @(s2)+-3 0.150000 s1 @(s1)+(3/2) @(s1)+(-3/2) 0.075000
# users = Feng Ye, John Carruth, Adam Aczel, Songxue Chi, Jaime Fernandez-Baca, Masaaki Matsuda, Tao Hong, Travis Williams, Wei Tian, Michael Cox
# local_contact = Wei Tian, Adam Aczel
# scan_title = La2Ni7, ( 0.00025 0.000248 4.999549 ), th2th, 40'-20'-S-20'-20' colli
# monochromator = PG002
# analyzer = Pg002
# sense = +-+
# collimation = 40-40-40-80
# samplename = Si powdre, Si crystal, FeGa alloy, La2Ni7 crystal, Ba2.8Sr0.2CoSn2O9 crystal
# sampletype = crystal
# samplemosaic = 30.000000
# latticeconstants = 5.084792,5.084792,24.669626,90.000000,90.000000,120.000000
# ubmatrix = -0.007838,-0.010887,0.040486,-0.193443,-0.199303,-0.001943,0.118692,-0.108301,-0.000494
# mode = 0
# plane_normal = 0.013424,0.025807,0.999577
# ubconf = UB27May2023_80143PM.ini
# preset_type = normal 
# preset_channel = mcu
# preset_value = 10.000000
# def_x = s2
# def_y = detector
# col_headers = 
#   Pt.         s2         s1       time   detector    monitor        mcu         m2   rad_coll        sgl        sgu   slitb_bt   slitb_lf   slitb_rt   slitb_tp   slita_bt   slita_lf   slita_rt   slita_tp        stl        stu         sz         a1         a2          q          h          k          l         ei         ef          e
      1   -24.9056    -9.7224     10.264     10.000  71101.000     10.000    41.5367     0.0149    -0.7691     1.4795    26.0000     4.0000     7.0000    26.0000    24.0000    10.0000     7.0000    24.0000     0.0014    -0.0025     0.0023    20.7701    41.5466     1.1388     0.0003     0.0002     4.4711    14.4503    14.4437     0.006
      2   -25.0537    -9.7973     10.326     12.000  71101.000     10.000    41.5367     0.0149    -0.7691     1.4795    26.0000     4.0000     7.0000    26.0000    24.0000    10.0000     7.0000    24.0000     0.0014    -0.0024     0.0023    20.7700    41.5466     1.1454     0.0002     0.0002     4.4973    14.4503    14.4437     0.006
      3   -25.2051    -9.8721     10.282      9.000  71101.000     10.000    41.5367     0.0149    -0.7691     1.4795    26.0000     4.0000     7.0000    26.0000    24.0000    10.0000     7.0000    24.0000     0.0014    -0.0025     0.0024    20.7700    41.5466     1.1522     0.0003     0.0002     4.5240    14.4503    14.4437     0.006
      4   -25.3543    -9.9474     10.251     13.000  71101.000     10.000    41.5367     0.0149    -0.7691     1.4795    26.0000     4.0000     7.0000    26.0000    24.0000    10.0000     7.0000    24.0000     0.0014    -0.0024     0.0024    20.7700    41.5466     1.1589     0.0002     0.0002     4.5503    14.4503    14.4437     0.006
      5   -25.5048   -10.0219     10.281     15.000  71101.000     10.000    41.5367     0.0149    -0.7691     1.4795    26.0000     4.0000     7.0000    26.0000    24.0000    10.0000     7.0000    24.0000     0.0014    -0.0024     0.0024    20.7700    41.5466     1.1657     0.0003     0.0002     4.5769    14.4503    14.4437     0.006
      6   -25.6551   -10.0969     10.289     10.000  71101.000     10.000    41.5367     0.0149    -0.7692     1.4795    26.0000     4.0000     7.0000    26.0000    24.0000    10.0000     7.0000    24.0000     0.0014    -0.0025     0.0024    20.7700    41.5466     1.1725     0.0003     0.0003     4.6034    14.4503    14.4437     0.006
      7   -25.8049   -10.1722     10.284     12.000  71101.000     10.000    41.5367     0.0149    -0.7691     1.4795    26.0000     4.0000     7.0000    26.0000    24.0000    10.0000     7.0000    24.0000     0.0014    -0.0024     0.0024    20.7699    41.5466     1.1792     0.0002     0.0002     4.6299    14.4503    14.4437     0.006
      8   -25.9547   -10.2472     10.310     14.000  71101.000     10.000    41.5367     0.0149    -0.7691     1.4795    26.0000     4.0000     7.0000    26.0000    24.0000    10.0000     7.0000    24.0000     0.0014    -0.0025     0.0024    20.7699    41.5466     1.1859     0.0002     0.0002     4.6563    14.4503    14.4437     0.006
      9   -26.1071   -10.3223     10.300     14.000  71101.000     10.000    41.5367     0.0149    -0.7691     1.4795    26.0000     4.0000     7.0000    26.0000    24.0000    10.0000     7.0000    24.0000     0.0014    -0.0025     0.0024    20.7700    41.5466     1.1928     0.0003     0.0003     4.6831    14.4503    14.4437     0.006
     10   -26.2582   -10.3974     10.296      7.000  71101.000     10.000    41.5367     0.0149    -0.7691     1.4795    26.0000     4.0000     7.0000    26.0000    24.0000    10.0000     7.0000    24.0000     0.0014    -0.0025     0.0024    20.7699    41.5466     1.1995     0.0003     0.0003     4.7097    14.4503    14.4437     0.006
     11   -26.4073   -10.4727     10.269     12.000  71101.000     10.000    41.5367     0.0149    -0.7691     1.4795    26.0000     4.0000     7.0000    26.0000    24.0000    10.0000     7.0000    24.0000     0.0014    -0.0025     0.0024    20.7699    41.5466     1.2062     0.0003     0.0003     4.7360    14.4503    14.4437     0.006
     12   -26.5550   -10.5475     10.180     10.000  71101.000     10.000    41.5367     0.0149    -0.7691     1.4795    26.0000     4.0000     7.0000    26.0000    24.0000    10.0000     7.0000    24.0000     0.0014    -0.0025     0.0024    20.7699    41.5466     1.2129     0.0002     0.0002     4.7620    14.4503    14.4437     0.006
     13   -26.7036   -10.6226     10.305     14.000  71101.000     10.000    41.5367     0.0149    -0.7691     1.4795    26.0000     4.0000     7.0000    26.0000    24.0000    10.0000     7.0000    24.0000     0.0014    -0.0025     0.0024    20.7699    41.5466     1.2195     0.0002     0.0002     4.7882    14.4503    14.4437     0.006
     14   -26.8540   -10.6975     10.259     12.000  71101.000     10.000    41.5367     0.0149    -0.7691     1.4795    26.0000     4.0000     7.0000    26.0000    24.0000    10.0000     7.0000    24.0000     0.0014    -0.0025     0.0024    20.7699    41.5466     1.2263     0.0002     0.0002     4.8147    14.4503    14.4437     0.006
     15   -27.0037   -10.7723     10.238     13.000  71101.000     10.000    41.5367     0.0149    -0.7691     1.4795    26.0000     4.0000     7.0000    26.0000    24.0000    10.0000     7.0000    24.0000     0.0014    -0.0025     0.0024    20.7699    41.5466     1.2330     0.0002     0.0002     4.8410    14.4503    14.4437     0.006
     16   -27.1542   -10.8474     10.275     15.000  71101.000     10.000    41.5367     0.0149    -0.7691     1.4795    26.0000     4.0000     7.0000    26.0000    24.0000    10.0000     7.0000    24.0000     0.0014    -0.0025     0.0024    20.7699    41.5466     1.2397     0.0002     0.0002     4.8675    14.4503    14.4437     0.006
     17   -27.3048   -10.9222     10.248     13.000  71101.000     10.000    41.5367     0.0149    -0.7691     1.4795    26.0000     4.0000     7.0000    26.0000    24.0000    10.0000     7.0000    24.0000     0.0014    -0.0025     0.0024    20.7699    41.5466     1.2465     0.0002     0.0002     4.8940    14.4503    14.4437     0.006
     18   -27.4554   -10.9970     10.292     18.000  71101.000     10.000    41.5367     0.0149    -0.7692     1.4795    26.0000     4.0000     7.0000    26.0000    24.0000    10.0000     7.0000    24.0000     0.0014    -0.0025     0.0024    20.7699    41.5466     1.2532     0.0003     0.0003     4.9205    14.4503    14.4437     0.006
     19   -27.6062   -11.0719     10.271     43.000  71101.000     10.000    41.5367     0.0149    -0.7691     1.4795    26.0000     4.0000     7.0000    26.0000    24.0000    10.0000     7.0000    24.0000     0.0014    -0.0025     0.0024    20.7699    41.5466     1.2600     0.0003     0.0003     4.9470    14.4503    14.4437     0.006
     20   -27.7572   -11.1470     10.260    140.000  71101.000     10.000    41.5367     0.0149    -0.7692     1.4795    26.0000     4.0000     7.0000    26.0000    24.0000    10.0000     7.0000    24.0000     0.0014    -0.0025     0.0024    20.7699    41.5466     1.2667     0.0003     0.0003     4.9735    14.4503    14.4437     0.006
     21   -27.9082   -11.2223     10.222    286.000  71101.000     10.000    41.5367     0.0149    -0.7691     1.4795    26.0000     4.0000     7.0000    26.0000    24.0000    10.0000     7.0000    24.0000     0.0014    -0.0024     0.0024    20.7699    41.5466     1.2735     0.0003     0.0003     5.0000    14.4503    14.4437     0.006
     22   -28.0549   -11.2970     10.290    282.000  71101.000     10.000    41.5367     0.0149    -0.7691     1.4795    26.0000     4.0000     7.0000    26.0000    24.0000    10.0000     7.0000    24.0000     0.0014    -0.0025     0.0024    20.7699    41.5466     1.2800     0.0003     0.0002     5.0258    14.4503    14.4437     0.006
     23   -28.2039   -11.3726     10.294    161.000  71101.000     10.000    41.5367     0.0149    -0.7691     1.4795    26.0000     4.0000     7.0000    26.0000    24.0000    10.0000     7.0000    24.0000     0.0014    -0.0025     0.0024    20.7698    41.5466     1.2867     0.0002     0.0002     5.0519    14.4503    14.4437     0.006
     24   -28.3544   -11.4475     10.388     74.000  71101.000     10.000    41.5367     0.0149    -0.7692     1.4795    26.0000     4.0000     7.0000    26.0000    24.0000    10.0000     7.0000    24.0000     0.0014    -0.0025     0.0024    20.7699    41.5466     1.2934     0.0002     0.0002     5.0783    14.4503    14.4437     0.006
     25   -28.5049   -11.5228     10.303     31.000  71101.000     10.000    41.5367     0.0149    -0.7692     1.4795    26.0000     4.0000     7.0000    26.0000    24.0000    10.0000     7.0000    24.0000     0.0014    -0.0024     0.0024    20.7699    41.5466     1.3001     0.0002     0.0002     5.1047    14.4503    14.4437     0.006
     26   -28.6523   -11.5974     10.320     20.000  71101.000     10.000    41.5367     0.0149    -0.7691     1.4795    26.0000     4.0000     7.0000    26.0000    24.0000    10.0000     7.0000    24.0000     0.0014    -0.0025     0.0024    20.7698    41.5466     1.3067     0.0002     0.0002     5.1306    14.4503    14.4437     0.006
     27   -28.8057   -11.6727     10.296     14.000  71101.000     10.000    41.5367     0.0149    -0.7692     1.4795    26.0000     4.0000     7.0000    26.0000    24.0000    10.0000     7.0000    24.0000     0.0014    -0.0024     0.0024    20.7699    41.5466     1.3136     0.0002     0.0002     5.1575    14.4503    14.4437     0.006
     28   -28.9558   -11.7473     10.304     13.000  71101.000     10.000    41.5367     0.0149    -0.7691     1.4795    26.0000     4.0000     7.0000    26.0000    24.0000    10.0000     7.0000    24.0000     0.0014    -0.0025     0.0024    20.7698    41.5466     1.3203     0.0003     0.0003     5.1838    14.4503    14.4437     0.006
     29   -29.1066   -11.8224     10.260     12.000  71101.000     10.000    41.5367     0.0149    -0.7691     1.4795    26.0000     4.0000     7.0000    26.0000    24.0000    10.0000     7.0000    24.0000     0.0014    -0.0025     0.0024    20.7698    41.5466     1.3270     0.0003     0.0003     5.2102    14.4503    14.4437     0.006
     30   -29.2569   -11.8972     10.224      8.000  71101.000     10.000    41.5367     0.0149    -0.7692     1.4795    26.0000     4.0000     7.0000    26.0000    24.0000    10.0000     7.0000    24.0000     0.0014    -0.0025     0.0024    20.7699    41.5466     1.3337     0.0003     0.0003     5.2365    14.4503    14.4437     0.006
     31   -29.4078   -11.9721     10.270     15.000  71101.000     10.000    41.5367     0.0149    -0.7691     1.4795    26.0000     4.0000     7.0000    26.0000    24.0000    10.0000     7.0000    24.0000     0.0014    -0.0025     0.0024    20.7698    41.5466     1.3404     0.0003     0.0003     5.2629    14.4503    14.4437     0.006
     32   -29.5563   -12.0470     10.140     16.000  71101.000     10.000    41.5367     0.0149    -0.7691     1.4795    26.0000     4.0000     7.0000    26.0000    24.0000    10.0000     7.0000    24.0000     0.0014    -0.0025     0.0024    20.7698    41.5466     1.3470     0.0003     0.0003     5.2889    14.4503    14.4437     0.006
     33   -29.7088   -12.1221     10.258     14.000  71101.000     10.000    41.5367     0.0149    -0.7691     1.4795    26.0000     4.0000     7.0000    26.0000    24.0000    10.0000     7.0000    24.0000     0.0014    -0.0025     0.0024    20.7698    41.5466     1.3538     0.0003     0.0003     5.3156    14.4503    14.4437     0.006
     34   -29.8531   -12.1970     10.280      9.000  71101.000     10.000    41.5367     0.0149    -0.7691     1.4795    26.0000     4.0000     7.0000    26.0000    24.0000    10.0000     7.0000    24.0000     0.0014    -0.0025     0.0024    20.7699    41.5466     1.3603     0.0002     0.0002     5.3408    14.4503    14.4437     0.006
     35   -30.0047   -12.2723     10.305      8.000  71101.000     10.000    41.5367     0.0149    -0.7691     1.4795    26.0000     4.0000     7.0000    26.0000    24.0000    10.0000     7.0000    24.0000     0.0014    -0.0024     0.0024    20.7698    41.5466     1.3670     0.0002     0.0002     5.3673    14.4503    14.4437     0.006
     36   -30.1534   -12.3475     10.262     17.000  71101.000     10.000    41.5367     0.0149    -0.7692     1.4795    26.0000     4.0000     7.0000    26.0000    24.0000    10.0000     7.0000    24.0000     0.0014    -0.0025     0.0024    20.7698    41.5466     1.3736     0.0002     0.0002     5.3933    14.4503    14.4437     0.006
     37   -30.3055   -12.4227     10.235     11.000  71101.000     10.000    41.5367     0.0149    -0.7691     1.4795    26.0000     4.0000     7.0000    26.0000    24.0000    10.0000     7.0000    24.0000     0.0014    -0.0025     0.0024    20.7698    41.5466     1.3804     0.0002     0.0002     5.4199    14.4503    14.4437     0.006
     38   -30.4553   -12.4975     10.254     15.000  71101.000     10.000    41.5367     0.0149    -0.7691     1.4795    26.0000     4.0000     7.0000    26.0000    24.0000    10.0000     7.0000    24.0000     0.0014    -0.0025     0.0024    20.7698    41.5466     1.3871     0.0002     0.0002     5.4460    14.4503    14.4437     0.006
     39   -30.6078   -12.5726     10.234     10.000  71101.000     10.000    41.5367     0.0149    -0.7691     1.4795    26.0000     4.0000     7.0000    26.0000    24.0000    10.0000     7.0000    24.0000     0.0014    -0.0025     0.0024    20.7698    41.5466     1.3938     0.0003     0.0003     5.4726    14.4503    14.4437     0.006
     40   -30.7531   -12.6475     10.348     13.000  71101.000     10.000    41.5367     0.0149    -0.7692     1.4795    26.0000     4.0000     7.0000    26.0000    24.0000    10.0000     7.0000    24.0000     0.0014    -0.0025     0.0024    20.7698    41.5466     1.4003     0.0002     0.0002     5.4980    14.4503    14.4437     0.006
     41   -30.9069   -12.7227     10.342     19.000  71101.000     10.000    41.5367     0.0149    -0.7691     1.4795    26.0000     4.0000     7.0000    26.0000    24.0000    10.0000     7.0000    24.0000     0.0014    -0.0025     0.0024    20.7698    41.5466     1.4071     0.0003     0.0003     5.5248    14.4503    14.4437     0.006
# Sum of Counts = 1454
# Center of Mass = -28.000901+/-1.038871
# Full Width Half-Maximum = 2.130131+/-0.225085
# 9:15:35 PM  5/27/2023   scan completed.
