# scan = 407
# date = 8/16/2024
# time = 8:16:14 PM
# proposal = 32912
# experiment = Quantum Phase Transition in Transverse Field Ising Ferromagnet HoV6Sn6
# experiment_number = 1031
# command = scanrel s1 1 -1 0.1
# builtin_command = scan s1 @(s1)+1 @(s1)+-1 0.100000
# users = Aashish Sapkota, Benjamin Ueland, Fei Li, Rob McQueeney, Tianxiong Han
# local_contact = Wei Tian, Bing Li
# scan_title = OP on Hc (2 0 0) H = 2.2 T, T = 0.4928 K
# monochromator = PG002
# analyzer = Pg002
# sense = +-+
# collimation = 40-40-40-80
# samplename = HoV6Sn6
# sampletype = crystal
# samplemosaic = 30.000000
# latticeconstants = 5.520013,5.520013,9.152013,90.000000,90.000000,120.000000
# ubmatrix = 0.015667,0.005926,0.108953,0.208596,0.104928,-0.008180,-0.000560,0.180868,0.001176
# mode = 0
# plane_normal = -0.010528,0.003477,0.999939
# ubconf = UB12Aug2024_54830PM.ini
# preset_type = normal 
# preset_channel = time
# preset_value = 5.000000
# def_x = s1
# def_y = detector
# col_headers = 
#   Pt.         s1       time   detector    monitor        mcu         m2      mag_i         s2        sgl        sgu   slitb_bt   slitb_lf   slitb_rt   slitb_tp   slita_bt   slita_lf   slita_rt   slita_tp        stl        stu         a1         a2          q          h          k          l         ei         ef          e        vti       temp     temp_2         lt         ht      1kpot  sorb_temp       sorb  sample_ht persistent_field
      1  -114.5534      5.000      6.000 197402.000      8.336    41.5367    -0.0000   -59.6975     0.6032     0.1990    22.0000     7.0000     8.0000    22.0000    23.0000     3.0000     7.0000    23.0000    -3.0005     0.0010    20.7694    41.5442     2.6285     1.9995     0.0000     0.0674    14.4503    14.4453     0.0050     1.6754     1.0000     0.0000     0.4929     0.5419     1.7179    14.1106    14.0000     0.0000     2.200
      2  -114.6534      5.000     10.000 199122.000      8.409    41.5367    -0.0000   -59.6975     0.6032     0.1990    22.0000     7.0000     8.0000    22.0000    23.0000     3.0000     7.0000    23.0000    -3.0005     0.0010    20.7694    41.5442     2.6285     1.9996     0.0000     0.0607    14.4503    14.4453     0.0050     1.6745     1.0000     0.0000     0.4899     0.5387     1.7184    14.1558    14.0000     0.0000     2.200
      3  -114.7534      5.000      9.000 198577.000      8.386    41.5367     0.0000   -59.6975     0.6032     0.1990    22.0000     7.0000     8.0000    22.0000    23.0000     3.0000     7.0000    23.0000    -3.0005     0.0010    20.7694    41.5442     2.6285     1.9996     0.0000     0.0540    14.4503    14.4453     0.0050     1.6736     1.0000     0.0000     0.4922     0.5404     1.7172    14.2770    14.0000     0.0000     2.200
      4  -114.8534      5.000     13.000 198949.000      8.402    41.5367     0.0001   -59.6975     0.6032     0.1990    22.0000     7.0000     8.0000    22.0000    23.0000     3.0000     7.0000    23.0000    -3.0005     0.0010    20.7694    41.5442     2.6285     1.9997     0.0000     0.0473    14.4503    14.4453     0.0050     1.6727     1.0000     0.0000     0.4926     0.5412     1.7164    14.2408    14.0000     0.0000     2.200
      5  -114.9534      5.000     10.000 198051.000      8.364    41.5367     0.0001   -59.6975     0.6032     0.1990    22.0000     7.0000     8.0000    22.0000    23.0000     3.0000     7.0000    23.0000    -3.0005     0.0010    20.7694    41.5442     2.6285     1.9997     0.0000     0.0407    14.4503    14.4453     0.0050     1.6722     1.0000     0.0000     0.4884     0.5381     1.7155    13.7806    14.0000     0.0000     2.200
      6  -115.0534      5.000     17.000 198279.000      8.373    41.5367    -0.0000   -59.6975     0.6032     0.1990    22.0000     7.0000     8.0000    22.0000    23.0000     3.0000     7.0000    23.0000    -3.0005     0.0010    20.7694    41.5442     2.6285     1.9997     0.0000     0.0340    14.4503    14.4453     0.0050     1.6714     1.0000     0.0000     0.4891     0.5378     1.7165    14.2231    14.0000     0.0000     2.200
      7  -115.1534      5.000     20.000 198709.000      8.392    41.5367     0.0001   -59.6975     0.6032     0.1990    22.0000     7.0000     8.0000    22.0000    23.0000     3.0000     7.0000    23.0000    -3.0005     0.0010    20.7694    41.5442     2.6285     1.9998     0.0000     0.0273    14.4503    14.4453     0.0050     1.6704     1.0000     0.0000     0.4914     0.5398     1.7147    14.2810    14.0000     0.0000     2.200
      8  -115.2534      5.000     49.000 198784.000      8.395    41.5367    -0.0000   -59.6975     0.6032     0.1990    22.0000     7.0000     8.0000    22.0000    23.0000     3.0000     7.0000    23.0000    -3.0005     0.0010    20.7694    41.5442     2.6285     1.9998     0.0000     0.0206    14.4503    14.4453     0.0050     1.6695     1.0000     0.0000     0.4906     0.5397     1.7119    14.1266    14.0000     0.0000     2.200
      9  -115.3534      5.000    176.000 199288.000      8.416    41.5367    -0.0000   -59.6975     0.6032     0.1990    22.0000     7.0000     8.0000    22.0000    23.0000     3.0000     7.0000    23.0000    -3.0005     0.0010    20.7694    41.5442     2.6285     1.9998     0.0000     0.0139    14.4503    14.4453     0.0050     1.6685     1.0000     0.0000     0.4872     0.5366     1.7100    13.8245    14.0000     0.0000     2.200
     10  -115.4534      5.000    364.000 199438.000      8.422    41.5367    -0.0000   -59.6975     0.6032     0.1990    22.0000     7.0000     8.0000    22.0000    23.0000     3.0000     7.0000    23.0000    -3.0005     0.0010    20.7694    41.5442     2.6285     1.9998     0.0000     0.0073    14.4503    14.4453     0.0050     1.6676     1.0000     0.0000     0.4901     0.5384     1.7087    14.2515    14.0000     0.0000     2.200
     11  -115.5534      5.000    455.000 199490.000      8.425    41.5367     0.0000   -59.6975     0.6032     0.1990    22.0000     7.0000     8.0000    22.0000    23.0000     3.0000     7.0000    23.0000    -3.0005     0.0010    20.7694    41.5442     2.6285     1.9998     0.0000     0.0006    14.4503    14.4453     0.0050     1.6667     1.0000     0.0000     0.4904     0.5393     1.7064    14.2225    14.0000     0.0000     2.200
     12  -115.6534      5.000    377.000 199111.000      8.409    41.5367    -0.0000   -59.6975     0.6032     0.1990    22.0000     7.0000     8.0000    22.0000    23.0000     3.0000     7.0000    23.0000    -3.0005     0.0010    20.7694    41.5442     2.6285     1.9998     0.0000    -0.0061    14.4503    14.4453     0.0050     1.6658     1.0000     0.0000     0.4862     0.5356     1.7082    13.7885    14.0000     0.0000     2.200
     13  -115.7534      5.000    131.000 198273.000      8.373    41.5367    -0.0000   -59.6975     0.6032     0.1990    22.0000     7.0000     8.0000    22.0000    23.0000     3.0000     7.0000    23.0000    -3.0005     0.0010    20.7694    41.5442     2.6285     1.9998     0.0000    -0.0128    14.4503    14.4453     0.0050     1.6650     1.0000     0.0000     0.4884     0.5369     1.7085    14.2710    14.0000     0.0000     2.200
     14  -115.8534      5.000     44.000 198345.000      8.376    41.5367    -0.0000   -59.6975     0.6032     0.1990    22.0000     7.0000     8.0000    22.0000    23.0000     3.0000     7.0000    23.0000    -3.0005     0.0010    20.7694    41.5442     2.6285     1.9998     0.0000    -0.0195    14.4503    14.4453     0.0050     1.6642     1.0000     0.0000     0.4895     0.5382     1.7082    14.2703    14.0000     0.0000     2.200
     15  -115.9534      5.000     20.000 198065.000      8.364    41.5367     0.0001   -59.6975     0.6032     0.1990    22.0000     7.0000     8.0000    22.0000    23.0000     3.0000     7.0000    23.0000    -3.0005     0.0010    20.7694    41.5442     2.6285     1.9998     0.0000    -0.0262    14.4503    14.4453     0.0050     1.6633     1.0000     0.0000     0.4875     0.5370     1.7060    13.7940    14.0000     0.0000     2.200
     16  -116.0534      5.000     12.000 197521.000      8.341    41.5367    -0.0000   -59.6975     0.6032     0.1990    22.0000     7.0000     8.0000    22.0000    23.0000     3.0000     7.0000    23.0000    -3.0005     0.0010    20.7694    41.5442     2.6285     1.9997     0.0000    -0.0328    14.4503    14.4453     0.0050     1.6625     1.0000     0.0000     0.4854     0.5344     1.7049    14.1921    14.0000     0.0000     2.200
     17  -116.1534      5.000     11.000 198630.000      8.388    41.5367    -0.0000   -59.6975     0.6032     0.1990    22.0000     7.0000     8.0000    22.0000    23.0000     3.0000     7.0000    23.0000    -3.0005     0.0010    20.7694    41.5442     2.6285     1.9997     0.0000    -0.0395    14.4503    14.4453     0.0050     1.6618     1.0000     0.0000     0.4875     0.5360     1.7051    14.2701    14.0000     0.0000     2.200
     18  -116.2534      5.000     15.000 199984.000      8.445    41.5367     0.0001   -59.6975     0.6032     0.1990    22.0000     7.0000     8.0000    22.0000    23.0000     3.0000     7.0000    23.0000    -3.0005     0.0010    20.7694    41.5442     2.6285     1.9997     0.0000    -0.0462    14.4503    14.4453     0.0050     1.6610     1.0000     0.0000     0.4875     0.5369     1.7027    14.1167    14.0000     0.0000     2.200
     19  -116.3534      5.000     11.000 197991.000      8.361    41.5367     0.0001   -59.6975     0.6032     0.1990    22.0000     7.0000     8.0000    22.0000    23.0000     3.0000     7.0000    23.0000    -3.0005     0.0010    20.7694    41.5442     2.6285     1.9996     0.0000    -0.0529    14.4503    14.4453     0.0050     1.6603     1.0000     0.0000     0.4845     0.5340     1.7017    13.7947    14.0000     0.0000     2.200
     20  -116.4534      5.000     17.000 197954.000      8.360    41.5367     0.0001   -59.6975     0.6032     0.1990    22.0000     7.0000     8.0000    22.0000    23.0000     3.0000     7.0000    23.0000    -3.0005     0.0010    20.7694    41.5442     2.6285     1.9996     0.0000    -0.0596    14.4503    14.4453     0.0050     1.6595     1.0000     0.0000     0.4859     0.5345     1.7031    14.2739    14.0000     0.0000     2.200
     21  -116.5534      5.000     14.000 199289.000      8.416    41.5367     0.0001   -59.6975     0.6032     0.1990    22.0000     7.0000     8.0000    22.0000    23.0000     3.0000     7.0000    23.0000    -3.0005     0.0010    20.7694    41.5442     2.6285     1.9995     0.0000    -0.0662    14.4503    14.4453     0.0050     1.6589     1.0000     0.0000     0.4871     0.5363     1.7008    14.1785    14.0000     0.0000     2.200
# Sum of Counts = 1781
# Center of Mass = -115.556881+/-3.872393
# Full Width Half-Maximum = 0.514011+/-1.339367
# 8:18:33 PM  8/16/2024   scan completed.
