# scan = 405
# date = 8/16/2024
# time = 8:08:00 PM
# proposal = 32912
# experiment = Quantum Phase Transition in Transverse Field Ising Ferromagnet HoV6Sn6
# experiment_number = 1031
# command = scanrel s1 1 -1 0.1
# builtin_command = scan s1 @(s1)+1 @(s1)+-1 0.100000
# users = Aashish Sapkota, Benjamin Ueland, Fei Li, Rob McQueeney, Tianxiong Han
# local_contact = Wei Tian, Bing Li
# scan_title = OP on Hc (2 0 0) H = 2.2 T, T = 0.27194 K
# monochromator = PG002
# analyzer = Pg002
# sense = +-+
# collimation = 40-40-40-80
# samplename = HoV6Sn6
# sampletype = crystal
# samplemosaic = 30.000000
# latticeconstants = 5.520013,5.520013,9.152013,90.000000,90.000000,120.000000
# ubmatrix = 0.015667,0.005926,0.108953,0.208596,0.104928,-0.008180,-0.000560,0.180868,0.001176
# mode = 0
# plane_normal = -0.010528,0.003477,0.999939
# ubconf = UB12Aug2024_54830PM.ini
# preset_type = normal 
# preset_channel = time
# preset_value = 5.000000
# def_x = s1
# def_y = detector
# col_headers = 
#   Pt.         s1       time   detector    monitor        mcu         m2      mag_i         s2        sgl        sgu   slitb_bt   slitb_lf   slitb_rt   slitb_tp   slita_bt   slita_lf   slita_rt   slita_tp        stl        stu         a1         a2          q          h          k          l         ei         ef          e        vti       temp     temp_2         lt         ht      1kpot  sorb_temp       sorb  sample_ht persistent_field
      1  -114.5534      5.000     17.000 197729.000      8.350    41.5367    -0.0000   -59.6975     0.6032     0.1990    22.0000     7.0000     8.0000    22.0000    23.0000     3.0000     7.0000    23.0000    -3.0005     0.0010    20.7694    41.5442     2.6285     1.9995     0.0000     0.0674    14.4503    14.4453     0.0050     1.7053     1.0000     0.0000     0.2741     0.3375     1.7453    10.9772    10.0000     0.0000     2.200
      2  -114.6534      5.000      8.000 198388.000      8.378    41.5367    -0.0000   -59.6975     0.6032     0.1990    22.0000     7.0000     8.0000    22.0000    23.0000     3.0000     7.0000    23.0000    -3.0005     0.0010    20.7694    41.5442     2.6285     1.9996     0.0000     0.0607    14.4503    14.4453     0.0050     1.7039     1.0000     0.0000     0.2752     0.3383     1.7440    10.7073    10.0000     0.0000     2.200
      3  -114.7534      5.000     17.000 198989.000      8.403    41.5367    -0.0000   -59.6975     0.6032     0.1990    22.0000     7.0000     8.0000    22.0000    23.0000     3.0000     7.0000    23.0000    -3.0005     0.0010    20.7694    41.5442     2.6285     1.9996     0.0000     0.0540    14.4503    14.4453     0.0050     1.7026     1.0000     0.0000     0.2763     0.3393     1.7415    10.7384    10.0000     0.0000     2.200
      4  -114.8534      5.000     12.000 198899.000      8.400    41.5367     0.0001   -59.6975     0.6032     0.1990    22.0000     7.0000     8.0000    22.0000    23.0000     3.0000     7.0000    23.0000    -3.0005     0.0010    20.7694    41.5442     2.6285     1.9997     0.0000     0.0473    14.4503    14.4453     0.0050     1.7013     1.0000     0.0000     0.2775     0.3403     1.7384    11.1330    10.0000     0.0000     2.200
      5  -114.9534      5.000     16.000 199852.000      8.440    41.5367    -0.0000   -59.6975     0.6032     0.1990    22.0000     7.0000     8.0000    22.0000    23.0000     3.0000     7.0000    23.0000    -3.0005     0.0010    20.7694    41.5442     2.6285     1.9997     0.0000     0.0407    14.4503    14.4453     0.0050     1.7001     1.0000     0.0000     0.2789     0.3415     1.7407    11.1801    10.0000     0.0000     2.200
      6  -115.0534      5.000     12.000 198998.000      8.404    41.5367     0.0000   -59.6975     0.6032     0.1990    22.0000     7.0000     8.0000    22.0000    23.0000     3.0000     7.0000    23.0000    -3.0005     0.0010    20.7694    41.5442     2.6285     1.9997     0.0000     0.0340    14.4503    14.4453     0.0050     1.6985     1.0000     0.0000     0.2802     0.3426     1.7385    11.3041    10.0000     0.0000     2.200
      7  -115.1534      5.000     30.000 198995.000      8.404    41.5367    -0.0000   -59.6975     0.6032     0.1990    22.0000     7.0000     8.0000    22.0000    23.0000     3.0000     7.0000    23.0000    -3.0005     0.0010    20.7694    41.5442     2.6285     1.9998     0.0000     0.0273    14.4503    14.4453     0.0050     1.6975     1.0000     0.0000     0.2816     0.3439     1.7383    11.2806    10.0000     0.0000     2.200
      8  -115.2534      5.000     55.000 198277.000      8.373    41.5367     0.0000   -59.6975     0.6032     0.1990    22.0000     7.0000     8.0000    22.0000    23.0000     3.0000     7.0000    23.0000    -3.0005     0.0010    20.7694    41.5442     2.6285     1.9998     0.0000     0.0206    14.4503    14.4453     0.0050     1.6963     1.0000     0.0000     0.2831     0.3452     1.7378    11.0141    10.0000     0.0000     2.200
      9  -115.3534      5.000    195.000 198875.000      8.399    41.5367    -0.0000   -59.6975     0.6032     0.1990    22.0000     7.0000     8.0000    22.0000    23.0000     3.0000     7.0000    23.0000    -3.0005     0.0010    20.7694    41.5442     2.6285     1.9998     0.0000     0.0139    14.4503    14.4453     0.0050     1.6946     1.0000     0.0000     0.2847     0.3466     1.7340    10.7844    10.0000     0.0000     2.200
     10  -115.4534      5.000    386.000 197899.000      8.357    41.5367    -0.0000   -59.6975     0.6032     0.1990    22.0000     7.0000     8.0000    22.0000    23.0000     3.0000     7.0000    23.0000    -3.0005     0.0010    20.7694    41.5442     2.6285     1.9998     0.0000     0.0073    14.4503    14.4453     0.0050     1.6931     1.0000     0.0000     0.2862     0.3480     1.7326    11.0581    10.0000     0.0000     2.200
     11  -115.5534      5.000    469.000 198144.000      8.368    41.5367    -0.0000   -59.6975     0.6032     0.1990    22.0000     7.0000     8.0000    22.0000    23.0000     3.0000     7.0000    23.0000    -3.0005     0.0010    20.7694    41.5442     2.6285     1.9998     0.0000     0.0006    14.4503    14.4453     0.0050     1.6916     1.0000     0.0000     0.2878     0.3496     1.7333    10.6655    10.0000     0.0000     2.200
     12  -115.6534      5.000    325.000 198321.000      8.375    41.5367     0.0000   -59.6975     0.6032     0.1990    22.0000     7.0000     8.0000    22.0000    23.0000     3.0000     7.0000    23.0000    -3.0005     0.0010    20.7694    41.5442     2.6285     1.9998     0.0000    -0.0061    14.4503    14.4453     0.0050     1.6903     1.0000     0.0000     0.2894     0.3511     1.7287    10.3761    10.0000     0.0000     2.200
     13  -115.7534      5.000    152.000 198475.000      8.382    41.5367    -0.0000   -59.6975     0.6032     0.1990    22.0000     7.0000     8.0000    22.0000    23.0000     3.0000     7.0000    23.0000    -3.0005     0.0010    20.7694    41.5442     2.6285     1.9998     0.0000    -0.0128    14.4503    14.4453     0.0050     1.6881     1.0000     0.0000     0.2910     0.3526     1.7281    10.1743    10.0000     0.0000     2.200
     14  -115.8534      5.000     41.000 198010.000      8.362    41.5367    -0.0000   -59.6975     0.6032     0.1990    22.0000     7.0000     8.0000    22.0000    23.0000     3.0000     7.0000    23.0000    -3.0005     0.0010    20.7694    41.5442     2.6285     1.9998     0.0000    -0.0195    14.4503    14.4453     0.0050     1.6866     1.0000     0.0000     0.2925     0.3541     1.7234     9.5654    10.0000     0.0000     2.200
     15  -115.9534      5.000     21.000 198243.000      8.372    41.5367    -0.0000   -59.6975     0.6032     0.1990    22.0000     7.0000     8.0000    22.0000    23.0000     3.0000     7.0000    23.0000    -3.0005     0.0010    20.7694    41.5442     2.6285     1.9998     0.0000    -0.0262    14.4503    14.4453     0.0050     1.6853     1.0000     0.0000     0.2941     0.3556     1.7237     9.4840    10.0000     0.0000     2.200
     16  -116.0534      5.000     11.000 198458.000      8.381    41.5367    -0.0000   -59.6975     0.6032     0.1990    22.0000     7.0000     8.0000    22.0000    23.0000     3.0000     7.0000    23.0000    -3.0005     0.0010    20.7694    41.5442     2.6285     1.9997     0.0000    -0.0328    14.4503    14.4453     0.0050     1.6841     1.0000     0.0000     0.2958     0.3573     1.7220     9.4847    10.0000     0.0000     2.200
     17  -116.1534      5.000      9.000 198793.000      8.395    41.5367     0.0001   -59.6975     0.6032     0.1990    22.0000     7.0000     8.0000    22.0000    23.0000     3.0000     7.0000    23.0000    -3.0005     0.0010    20.7694    41.5442     2.6285     1.9997     0.0000    -0.0395    14.4503    14.4453     0.0050     1.6829     1.0000     0.0000     0.2974     0.3589     1.7198     9.4894    10.0000     0.0000     2.200
     18  -116.2534      5.000     13.000 198442.000      8.380    41.5367     0.0000   -59.6975     0.6032     0.1990    22.0000     7.0000     8.0000    22.0000    23.0000     3.0000     7.0000    23.0000    -3.0005     0.0010    20.7694    41.5442     2.6285     1.9997     0.0000    -0.0462    14.4503    14.4453     0.0050     1.6816     1.0000     0.0000     0.2990     0.3604     1.7194    10.4086    10.0000     0.0000     2.200
     19  -116.3534      5.000     11.000 196897.000      8.315    41.5367     0.0000   -59.6975     0.6032     0.1990    22.0000     7.0000     8.0000    22.0000    23.0000     3.0000     7.0000    23.0000    -3.0005     0.0010    20.7694    41.5442     2.6285     1.9996     0.0000    -0.0529    14.4503    14.4453     0.0050     1.6803     1.0000     0.0000     0.3006     0.3620     1.7185    10.3918    10.0000     0.0000     2.200
     20  -116.4534      5.000     13.000 197857.000      8.356    41.5367     0.0001   -59.6975     0.6032     0.1990    22.0000     7.0000     8.0000    22.0000    23.0000     3.0000     7.0000    23.0000    -3.0005     0.0010    20.7694    41.5442     2.6285     1.9996     0.0000    -0.0596    14.4503    14.4453     0.0050     1.6784     1.0000     0.0000     0.3024     0.3636     1.7189    10.4050    10.0000     0.0000     2.200
     21  -116.5534      5.000     14.000 198903.000      8.400    41.5367    -0.0000   -59.6975     0.6032     0.1990    22.0000     7.0000     8.0000    22.0000    23.0000     3.0000     7.0000    23.0000    -3.0005     0.0010    20.7694    41.5442     2.6285     1.9995     0.0000    -0.0662    14.4503    14.4453     0.0050     1.6769     1.0000     0.0000     0.3041     0.3651     1.7214    11.2605    10.0000     0.0000     2.200
# Sum of Counts = 1827
# Center of Mass = -115.537089+/-3.822678
# Full Width Half-Maximum = 0.533977+/-1.291237
# 8:10:18 PM  8/16/2024   scan completed.
