# scan = 369
# date = 8/16/2024
# time = 3:59:05 PM
# proposal = 32912
# experiment = Quantum Phase Transition in Transverse Field Ising Ferromagnet HoV6Sn6
# experiment_number = 1031
# command = scanrel s1 1 -1 0.1
# builtin_command = scan s1 @(s1)+1 @(s1)+-1 0.100000
# users = Aashish Sapkota, Benjamin Ueland, Fei Li, Rob McQueeney, Tianxiong Han
# local_contact = Wei Tian, Bing Li
# scan_title = OP on Hc (2 0 0) H = 1.8 T, T = 0.48412 K
# monochromator = PG002
# analyzer = Pg002
# sense = +-+
# collimation = 40-40-40-80
# samplename = HoV6Sn6
# sampletype = crystal
# samplemosaic = 30.000000
# latticeconstants = 5.520013,5.520013,9.152013,90.000000,90.000000,120.000000
# ubmatrix = 0.015667,0.005926,0.108953,0.208596,0.104928,-0.008180,-0.000560,0.180868,0.001176
# mode = 0
# plane_normal = -0.010528,0.003477,0.999939
# ubconf = UB12Aug2024_54830PM.ini
# preset_type = normal 
# preset_channel = time
# preset_value = 5.000000
# def_x = s1
# def_y = detector
# col_headers = 
#   Pt.         s1       time   detector    monitor        mcu         m2      mag_i         s2        sgl        sgu   slitb_bt   slitb_lf   slitb_rt   slitb_tp   slita_bt   slita_lf   slita_rt   slita_tp        stl        stu         a1         a2          q          h          k          l         ei         ef          e        vti       temp     temp_2         lt         ht      1kpot  sorb_temp       sorb  sample_ht persistent_field
      1  -114.5534      5.000      9.000 197917.000      8.358    41.5367    -0.0000   -59.6977     0.6032     0.1990    22.0000     7.0000     8.0000    22.0000    23.0000     3.0000     7.0000    23.0000    -3.0005     0.0010    20.7682    41.5442     2.6285     1.9995     0.0000     0.0674    14.4503    14.4453     0.0050     1.6800     1.0000     0.0000     0.4861     0.5261     1.7142    14.2723    14.0000     0.0000     1.800
      2  -114.6534      5.000     11.000 197115.000      8.324    41.5367     0.0001   -59.6977     0.6032     0.1990    22.0000     7.0000     8.0000    22.0000    23.0000     3.0000     7.0000    23.0000    -3.0005     0.0010    20.7682    41.5442     2.6285     1.9996     0.0000     0.0607    14.4503    14.4453     0.0050     1.6791     1.0000     0.0000     0.4859     0.5262     1.7114    14.2338    14.0000     0.0000     1.800
      3  -114.7534      5.000     14.000 199159.000      8.411    41.5367     0.0000   -59.6977     0.6032     0.1990    22.0000     7.0000     8.0000    22.0000    23.0000     3.0000     7.0000    23.0000    -3.0005     0.0010    20.7682    41.5442     2.6285     1.9996     0.0000     0.0540    14.4503    14.4453     0.0050     1.6781     1.0000     0.0000     0.4843     0.5252     1.7093    13.8298    14.0000     0.0000     1.800
      4  -114.8534      5.000     11.000 198512.000      8.383    41.5367    -0.0000   -59.6977     0.6032     0.1990    22.0000     7.0000     8.0000    22.0000    23.0000     3.0000     7.0000    23.0000    -3.0005     0.0010    20.7682    41.5442     2.6285     1.9997     0.0000     0.0474    14.4503    14.4453     0.0050     1.6772     1.0000     0.0000     0.4828     0.5235     1.7087    13.7892    14.0000     0.0000     1.800
      5  -114.9534      5.000     11.000 197583.000      8.344    41.5367     0.0001   -59.6977     0.6032     0.1990    22.0000     7.0000     8.0000    22.0000    23.0000     3.0000     7.0000    23.0000    -3.0005     0.0010    20.7682    41.5442     2.6285     1.9997     0.0000     0.0407    14.4503    14.4453     0.0050     1.6762     1.0000     0.0000     0.4837     0.5236     1.7100    14.2653    14.0000     0.0000     1.800
      6  -115.0534      5.000     15.000 197664.000      8.347    41.5367    -0.0000   -59.6977     0.6032     0.1990    22.0000     7.0000     8.0000    22.0000    23.0000     3.0000     7.0000    23.0000    -3.0005     0.0010    20.7682    41.5442     2.6285     1.9997     0.0000     0.0340    14.4503    14.4453     0.0050     1.6751     1.0000     0.0000     0.4847     0.5247     1.7102    14.2799    14.0000     0.0000     1.800
      7  -115.1534      5.000     23.000 198178.000      8.369    41.5367    -0.0000   -59.6977     0.6032     0.1990    22.0000     7.0000     8.0000    22.0000    23.0000     3.0000     7.0000    23.0000    -3.0005     0.0010    20.7682    41.5442     2.6285     1.9998     0.0000     0.0273    14.4503    14.4453     0.0050     1.6742     1.0000     0.0000     0.4849     0.5252     1.7076    14.2371    14.0000     0.0000     1.800
      8  -115.2534      5.000     59.000 198140.000      8.368    41.5367     0.0000   -59.6977     0.6032     0.1990    22.0000     7.0000     8.0000    22.0000    23.0000     3.0000     7.0000    23.0000    -3.0005     0.0010    20.7682    41.5442     2.6285     1.9998     0.0000     0.0206    14.4503    14.4453     0.0050     1.6731     1.0000     0.0000     0.4834     0.5243     1.7059    13.8149    14.0000     0.0000     1.800
      9  -115.3534      5.000    186.000 197353.000      8.334    41.5367    -0.0001   -59.6977     0.6032     0.1990    22.0000     7.0000     8.0000    22.0000    23.0000     3.0000     7.0000    23.0000    -3.0005     0.0010    20.7682    41.5442     2.6285     1.9998     0.0000     0.0139    14.4503    14.4453     0.0050     1.6715     1.0000     0.0000     0.4808     0.5218     1.7033    13.8736    14.0000     0.0000     1.800
     10  -115.4534      5.000    405.000 198240.000      8.372    41.5367    -0.0000   -59.6977     0.6032     0.1990    22.0000     7.0000     8.0000    22.0000    23.0000     3.0000     7.0000    23.0000    -3.0005     0.0010    20.7682    41.5442     2.6285     1.9998     0.0000     0.0073    14.4503    14.4453     0.0050     1.6703     1.0000     0.0000     0.4822     0.5221     1.7055    14.2214    14.0000     0.0000     1.800
     11  -115.5534      5.000    475.000 198055.000      8.364    41.5367    -0.0000   -59.6977     0.6032     0.1990    22.0000     7.0000     8.0000    22.0000    23.0000     3.0000     7.0000    23.0000    -3.0005     0.0010    20.7682    41.5442     2.6285     1.9998     0.0000     0.0006    14.4503    14.4453     0.0050     1.6694     1.0000     0.0000     0.4833     0.5231     1.7068    14.4380    14.0000     0.0000     1.800
     12  -115.6534      5.000    308.000 198765.000      8.394    41.5367     0.0001   -59.6977     0.6032     0.1990    22.0000     7.0000     8.0000    22.0000    23.0000     3.0000     7.0000    23.0000    -3.0005     0.0010    20.7682    41.5442     2.6285     1.9998     0.0000    -0.0061    14.4503    14.4453     0.0050     1.6687     1.0000     0.0000     0.4840     0.5242     1.7039    14.2507    14.0000     0.0000     1.800
     13  -115.7534      5.000    142.000 197731.000      8.350    41.5367     0.0000   -59.6977     0.6032     0.1990    22.0000     7.0000     8.0000    22.0000    23.0000     3.0000     7.0000    23.0000    -3.0005     0.0010    20.7682    41.5442     2.6285     1.9998     0.0000    -0.0128    14.4503    14.4453     0.0050     1.6678     1.0000     0.0000     0.4832     0.5237     1.7027    14.1585    14.0000     0.0000     1.800
     14  -115.8534      5.000     37.000 198730.000      8.392    41.5367    -0.0000   -59.6977     0.6032     0.1990    22.0000     7.0000     8.0000    22.0000    23.0000     3.0000     7.0000    23.0000    -3.0005     0.0010    20.7682    41.5442     2.6285     1.9998     0.0000    -0.0195    14.4503    14.4453     0.0050     1.6670     1.0000     0.0000     0.4805     0.5218     1.7011    13.8042    14.0000     0.0000     1.800
     15  -115.9534      5.000     14.000 197016.000      8.320    41.5367    -0.0000   -59.6977     0.6032     0.1990    22.0000     7.0000     8.0000    22.0000    23.0000     3.0000     7.0000    23.0000    -3.0005     0.0010    20.7682    41.5442     2.6285     1.9998     0.0000    -0.0261    14.4503    14.4453     0.0050     1.6663     1.0000     0.0000     0.4798     0.5207     1.7009    14.1729    14.0000     0.0000     1.800
     16  -116.0534      5.000      9.000 198016.000      8.362    41.5367    -0.0000   -59.6977     0.6032     0.1990    22.0000     7.0000     8.0000    22.0000    23.0000     3.0000     7.0000    23.0000    -3.0005     0.0010    20.7682    41.5442     2.6285     1.9998     0.0000    -0.0328    14.4503    14.4453     0.0050     1.6657     1.0000     0.0000     0.4828     0.5228     1.6993    14.2883    14.0000     0.0000     1.800
     17  -116.1534      5.000     12.000 198325.000      8.375    41.5367     0.0000   -59.6977     0.6032     0.1990    22.0000     7.0000     8.0000    22.0000    23.0000     3.0000     7.0000    23.0000    -3.0005     0.0010    20.7682    41.5442     2.6285     1.9997     0.0000    -0.0395    14.4503    14.4453     0.0050     1.6650     1.0000     0.0000     0.4827     0.5232     1.6996    14.2216    14.0000     0.0000     1.800
     18  -116.2534      5.000      8.000 198190.000      8.370    41.5367    -0.0000   -59.6977     0.6032     0.1990    22.0000     7.0000     8.0000    22.0000    23.0000     3.0000     7.0000    23.0000    -3.0005     0.0010    20.7682    41.5442     2.6285     1.9997     0.0000    -0.0462    14.4503    14.4453     0.0050     1.6644     1.0000     0.0000     0.4813     0.5223     1.6972    13.7921    14.0000     0.0000     1.800
     19  -116.3534      5.000     12.000 198881.000      8.399    41.5367    -0.0000   -59.6977     0.6032     0.1990    22.0000     7.0000     8.0000    22.0000    23.0000     3.0000     7.0000    23.0000    -3.0005     0.0010    20.7682    41.5442     2.6285     1.9996     0.0000    -0.0529    14.4503    14.4453     0.0050     1.6638     1.0000     0.0000     0.4795     0.5200     1.6977    14.1774    14.0000     0.0000     1.800
     20  -116.4534      5.000      8.000 198623.000      8.388    41.5367    -0.0000   -59.6977     0.6032     0.1990    22.0000     7.0000     8.0000    22.0000    23.0000     3.0000     7.0000    23.0000    -3.0005     0.0010    20.7682    41.5442     2.6285     1.9996     0.0000    -0.0596    14.4503    14.4453     0.0050     1.6632     1.0000     0.0000     0.4795     0.5198     1.6978    14.1681    14.0000     0.0000     1.800
     21  -116.5534      5.000      9.000 198796.000      8.395    41.5367     0.0000   -59.6977     0.6032     0.1990    22.0000     7.0000     8.0000    22.0000    23.0000     3.0000     7.0000    23.0000    -3.0005     0.0010    20.7682    41.5442     2.6285     1.9995     0.0000    -0.0662    14.4503    14.4453     0.0050     1.6627     1.0000     0.0000     0.4800     0.5203     1.6970    14.3138    14.0000     0.0000     1.800
# Sum of Counts = 1778
# Center of Mass = -115.532309+/-3.874834
# Full Width Half-Maximum = 0.492095+/-1.362287
# 4:01:20 PM  8/16/2024   scan completed.
