# scan = 1924
# date = 4/15/2024
# time = 9:04:38 PM
# proposal = 33477
# experiment = Commissioning and enabling the 4-circle capability at VERITAS
# experiment_number = 1012
# command = scan s1 -14.97 -16.97 0.1
# builtin_command = scan s1 -14.97 -16.97 0.1
# users = Feng Ye, Mike McDowell, Adam Aczel, Bing Li, Wei Tian, Bing Li
# local_contact = Wei Tian, Adam Aczel
# scan_title = Nuclear_300K_2axis: (1.00 0.00 -1.00 )
# monochromator = PG002
# analyzer = Pg002
# sense = +-+
# collimation = 40-40-40-80
# samplename = La2Ni7, Al-doped CuFeO2
# sampletype = crystal
# samplemosaic = 30.000000
# latticeconstants = 5.263000,5.582000,7.591000,90.000000,90.000000,90.000000
# ubmatrix = -0.000000,0.179117,-0.000000,-0.000000,0.003291,-0.000000,-0.000000,0.000127,-0.000000
# mode = 0
# plane_normal = -0.000714,0.000226,1.000000
# ubconf = UB15Apr2024_11557PM.ini
# preset_type = normal 
# preset_channel = time
# preset_value = 5.000000
# def_x = s1
# def_y = detector
# col_headers = 
#   Pt.         s1       time   detector    monitor        mcu         m2        chi        phi         s2        sgl        sgu   slitb_bt   slitb_lf   slitb_rt   slitb_tp   slita_bt   slita_lf   slita_rt   slita_tp         a1         a2          q          h          k          l         ei         ef          e    coldtip     sample       temp
      1   -14.9700      5.000     18.000  48315.000      4.930    41.5367   -46.0892  -157.5401   -31.9363     0.0409     0.0130    10.0000     5.0000     5.0000    10.0000    12.0000     8.0000     8.0000    12.0000    90.0033    -0.0008     1.4530     0.0000     0.0000     0.0000    14.4503    14.4503     0.0000     0.0000     0.0000   300.000
      2   -15.0698      5.000     16.000  48044.000      4.902    41.5367   -46.0892  -157.5401   -31.9363     0.0409     0.0130    10.0000     5.0000     5.0000    10.0000    12.0000     8.0000     8.0000    12.0000    90.0033    -0.0008     1.4530     0.0000     0.0000     0.0000    14.4503    14.4503     0.0000     0.0000     0.0000   300.000
      3   -15.1697      5.000     21.000  48298.000      4.928    41.5367   -46.0892  -157.5401   -31.9363     0.0409     0.0130    10.0000     5.0000     5.0000    10.0000    12.0000     8.0000     8.0000    12.0000    90.0033    -0.0008     1.4530     0.0000     0.0000     0.0000    14.4503    14.4503     0.0000     0.0000     0.0000   300.000
      4   -15.2694      5.000     13.000  47677.000      4.865    41.5367   -46.0892  -157.5401   -31.9363     0.0409     0.0130    10.0000     5.0000     5.0000    10.0000    12.0000     8.0000     8.0000    12.0000    90.0033    -0.0008     1.4530     0.0000     0.0000     0.0000    14.4503    14.4503     0.0000     0.0000     0.0000   300.000
      5   -15.3697      5.000     28.000  48009.000      4.899    41.5367   -46.0892  -157.5401   -31.9363     0.0409     0.0130    10.0000     5.0000     5.0000    10.0000    12.0000     8.0000     8.0000    12.0000    90.0033    -0.0008     1.4530     0.0000     0.0000     0.0000    14.4503    14.4503     0.0000     0.0000     0.0000   300.000
      6   -15.4699      5.000     29.000  48184.000      4.917    41.5367   -46.0892  -157.5401   -31.9363     0.0409     0.0130    10.0000     5.0000     5.0000    10.0000    12.0000     8.0000     8.0000    12.0000    90.0033    -0.0008     1.4530     0.0000     0.0000     0.0000    14.4503    14.4503     0.0000     0.0000     0.0000   300.000
      7   -15.5704      5.000    114.000  48089.000      4.907    41.5367   -46.0892  -157.5401   -31.9363     0.0409     0.0130    10.0000     5.0000     5.0000    10.0000    12.0000     8.0000     8.0000    12.0000    90.0032    -0.0008     1.4530     0.0000     0.0000     0.0000    14.4503    14.4503     0.0000     0.0000     0.0000   300.000
      8   -15.6699      5.000    547.000  48050.000      4.903    41.5367   -46.0892  -157.5401   -31.9363     0.0409     0.0130    10.0000     5.0000     5.0000    10.0000    12.0000     8.0000     8.0000    12.0000    90.0033    -0.0008     1.4530     0.0000     0.0000     0.0000    14.4503    14.4503     0.0000     0.0000     0.0000   300.000
      9   -15.7705      5.000   1435.000  48331.000      4.932    41.5367   -46.0892  -157.5401   -31.9363     0.0409     0.0130    10.0000     5.0000     5.0000    10.0000    12.0000     8.0000     8.0000    12.0000    90.0033    -0.0008     1.4530     0.0000     0.0000     0.0000    14.4503    14.4503     0.0000     0.0000     0.0000   300.000
     10   -15.8698      5.000   2474.000  48012.000      4.899    41.5367   -46.0892  -157.5401   -31.9363     0.0409     0.0130    10.0000     5.0000     5.0000    10.0000    12.0000     8.0000     8.0000    12.0000    90.0032    -0.0008     1.4530     0.0000     0.0000     0.0000    14.4503    14.4503     0.0000     0.0000     0.0000   300.000
     11   -15.9700      5.000   2906.000  47969.000      4.895    41.5367   -46.0892  -157.5401   -31.9362     0.0409     0.0130    10.0000     5.0000     5.0000    10.0000    12.0000     8.0000     8.0000    12.0000    90.0032    -0.0008     1.4530     0.0000     0.0000     0.0000    14.4503    14.4503     0.0000     0.0000     0.0000   300.000
     12   -16.0699      5.000   2409.000  48435.000      4.942    41.5367   -46.0892  -157.5401   -31.9362     0.0409     0.0130    10.0000     5.0000     5.0000    10.0000    12.0000     8.0000     8.0000    12.0000    90.0033    -0.0008     1.4530     0.0000     0.0000     0.0000    14.4503    14.4503     0.0000     0.0000     0.0000   300.000
     13   -16.1696      5.000   1313.000  48225.000      4.921    41.5367   -46.0892  -157.5401   -31.9362     0.0409     0.0130    10.0000     5.0000     5.0000    10.0000    12.0000     8.0000     8.0000    12.0000    90.0032    -0.0008     1.4530     0.0000     0.0000     0.0000    14.4503    14.4503     0.0000     0.0000     0.0000   300.000
     14   -16.2694      5.000    336.000  48109.000      4.909    41.5367   -46.0892  -157.5401   -31.9362     0.0409     0.0130    10.0000     5.0000     5.0000    10.0000    12.0000     8.0000     8.0000    12.0000    90.0032    -0.0008     1.4530     0.0000     0.0000     0.0000    14.4503    14.4503     0.0000     0.0000     0.0000   300.000
     15   -16.3697      5.000     77.000  48070.000      4.905    41.5367   -46.0892  -157.5401   -31.9362     0.0409     0.0130    10.0000     5.0000     5.0000    10.0000    12.0000     8.0000     8.0000    12.0000    90.0032    -0.0008     1.4530     0.0000     0.0000     0.0000    14.4503    14.4503     0.0000     0.0000     0.0000   300.000
     16   -16.4699      5.000     31.000  48152.000      4.913    41.5367   -46.0892  -157.5401   -31.9362     0.0409     0.0130    10.0000     5.0000     5.0000    10.0000    12.0000     8.0000     8.0000    12.0000    90.0032    -0.0008     1.4530     0.0000     0.0000     0.0000    14.4503    14.4503     0.0000     0.0000     0.0000   300.000
     17   -16.5705      5.000     20.000  48251.000      4.924    41.5367   -46.0892  -157.5401   -31.9362     0.0409     0.0130    10.0000     5.0000     5.0000    10.0000    12.0000     8.0000     8.0000    12.0000    90.0032    -0.0008     1.4530     0.0000     0.0000     0.0000    14.4503    14.4503     0.0000     0.0000     0.0000   300.000
     18   -16.6698      5.000     27.000  48094.000      4.908    41.5367   -46.0892  -157.5401   -31.9362     0.0409     0.0130    10.0000     5.0000     5.0000    10.0000    12.0000     8.0000     8.0000    12.0000    90.0032    -0.0008     1.4530     0.0000     0.0000     0.0000    14.4503    14.4503     0.0000     0.0000     0.0000   300.000
     19   -16.7703      5.000     24.000  48079.000      4.906    41.5367   -46.0892  -157.5401   -31.9362     0.0409     0.0130    10.0000     5.0000     5.0000    10.0000    12.0000     8.0000     8.0000    12.0000    90.0032    -0.0008     1.4530     0.0000     0.0000     0.0000    14.4503    14.4503     0.0000     0.0000     0.0000   300.000
     20   -16.8698      5.000     15.000  48097.000      4.908    41.5367   -46.0892  -157.5401   -31.9362     0.0409     0.0130    10.0000     5.0000     5.0000    10.0000    12.0000     8.0000     8.0000    12.0000    90.0032    -0.0008     1.4530     0.0000     0.0000     0.0000    14.4503    14.4503     0.0000     0.0000     0.0000   300.000
     21   -16.9699      5.000     17.000  48124.000      4.911    41.5367   -46.0892  -157.5401   -31.9362     0.0409     0.0130    10.0000     5.0000     5.0000    10.0000    12.0000     8.0000     8.0000    12.0000    90.0032    -0.0008     1.4530     0.0000     0.0000     0.0000    14.4503    14.4503     0.0000     0.0000     0.0000   300.000
# Sum of Counts = 11870
# Center of Mass = -15.961297+/-0.207192
# Full Width Half-Maximum = 0.370853+/-0.105312
# 9:07:42 PM  4/15/2024   scan completed.
