# scan = 2027
# date = 4/16/2024
# time = 4:18:51 AM
# proposal = 33477
# experiment = Commissioning and enabling the 4-circle capability at VERITAS
# experiment_number = 1012
# command = scan s1 -25.20 -27.20 0.1
# builtin_command = scan s1 -25.20 -27.20 0.1
# users = Feng Ye, Mike McDowell, Adam Aczel, Bing Li, Wei Tian, Bing Li
# local_contact = Wei Tian, Adam Aczel
# scan_title = Nuclear_300K_2axis: (-1.00 1.00 2.00 )
# monochromator = PG002
# analyzer = Pg002
# sense = +-+
# collimation = 40-40-40-80
# samplename = La2Ni7, Al-doped CuFeO2
# sampletype = crystal
# samplemosaic = 30.000000
# latticeconstants = 5.263000,5.582000,7.591000,90.000000,90.000000,90.000000
# ubmatrix = -0.000000,0.179117,-0.000000,-0.000000,0.003291,-0.000000,-0.000000,0.000127,-0.000000
# mode = 0
# plane_normal = -0.000714,0.000226,1.000000
# ubconf = UB15Apr2024_11557PM.ini
# preset_type = normal 
# preset_channel = time
# preset_value = 6.000000
# def_x = s1
# def_y = detector
# col_headers = 
#   Pt.         s1       time   detector    monitor        mcu         m2        chi        phi         s2        sgl        sgu   slitb_bt   slitb_lf   slitb_rt   slitb_tp   slita_bt   slita_lf   slita_rt   slita_tp         a1         a2          q          h          k          l         ei         ef          e    coldtip     sample       temp
      1   -25.1999      6.000     22.000  57592.000      5.877    41.5367    21.2407    51.6002   -52.3835     0.0409     0.0130    10.0000     5.0000     5.0000    10.0000    12.0000     8.0000     8.0000    12.0000    90.0032    -0.0009     2.3311     0.0000     0.0000     0.0000    14.4503    14.4503     0.0000     0.0000     0.0000   300.000
      2   -25.2997      6.000     24.000  57241.000      5.841    41.5367    21.2407    51.6002   -52.3835     0.0409     0.0130    10.0000     5.0000     5.0000    10.0000    12.0000     8.0000     8.0000    12.0000    90.0032    -0.0010     2.3311     0.0000     0.0000     0.0000    14.4503    14.4503     0.0000     0.0000     0.0000   300.000
      3   -25.3998      6.000     32.000  57605.000      5.878    41.5367    21.2407    51.6002   -52.3835     0.0409     0.0130    10.0000     5.0000     5.0000    10.0000    12.0000     8.0000     8.0000    12.0000    90.0031    -0.0010     2.3311     0.0000     0.0000     0.0000    14.4503    14.4503     0.0000     0.0000     0.0000   300.000
      4   -25.5000      6.000     30.000  57487.000      5.866    41.5367    21.2407    51.6002   -52.3835     0.0409     0.0130    10.0000     5.0000     5.0000    10.0000    12.0000     8.0000     8.0000    12.0000    90.0031    -0.0010     2.3311     0.0000     0.0000     0.0000    14.4503    14.4503     0.0000     0.0000     0.0000   300.000
      5   -25.6002      6.000     46.000  57590.000      5.877    41.5367    21.2407    51.6002   -52.3835     0.0409     0.0130    10.0000     5.0000     5.0000    10.0000    12.0000     8.0000     8.0000    12.0000    90.0031    -0.0010     2.3311     0.0000     0.0000     0.0000    14.4503    14.4503     0.0000     0.0000     0.0000   300.000
      6   -25.7001      6.000    180.000  57762.000      5.894    41.5367    21.2407    51.6002   -52.3835     0.0409     0.0130    10.0000     5.0000     5.0000    10.0000    12.0000     8.0000     8.0000    12.0000    90.0031    -0.0010     2.3311     0.0000     0.0000     0.0000    14.4503    14.4503     0.0000     0.0000     0.0000   300.000
      7   -25.8002      6.000    910.000  57574.000      5.875    41.5367    21.2407    51.6002   -52.3835     0.0409     0.0130    10.0000     5.0000     5.0000    10.0000    12.0000     8.0000     8.0000    12.0000    90.0031    -0.0010     2.3311     0.0000     0.0000     0.0000    14.4503    14.4503     0.0000     0.0000     0.0000   300.000
      8   -25.9001      6.000   2240.000  57317.000      5.849    41.5367    21.2407    51.6002   -52.3835     0.0409     0.0130    10.0000     5.0000     5.0000    10.0000    12.0000     8.0000     8.0000    12.0000    90.0031    -0.0010     2.3311     0.0000     0.0000     0.0000    14.4503    14.4503     0.0000     0.0000     0.0000   300.000
      9   -25.9998      6.000   3718.000  57214.000      5.838    41.5367    21.2407    51.6002   -52.3834     0.0409     0.0130    10.0000     5.0000     5.0000    10.0000    12.0000     8.0000     8.0000    12.0000    90.0031    -0.0010     2.3311     0.0000     0.0000     0.0000    14.4503    14.4503     0.0000     0.0000     0.0000   300.000
     10   -26.0997      6.000   4162.000  57548.000      5.872    41.5367    21.2407    51.6002   -52.3835     0.0409     0.0130    10.0000     5.0000     5.0000    10.0000    12.0000     8.0000     8.0000    12.0000    90.0031    -0.0010     2.3311     0.0000     0.0000     0.0000    14.4503    14.4503     0.0000     0.0000     0.0000   300.000
     11   -26.1995      6.000   3091.000  57311.000      5.848    41.5367    21.2407    51.6002   -52.3835     0.0409     0.0130    10.0000     5.0000     5.0000    10.0000    12.0000     8.0000     8.0000    12.0000    90.0031    -0.0010     2.3311     0.0000     0.0000     0.0000    14.4503    14.4503     0.0000     0.0000     0.0000   300.000
     12   -26.2996      6.000   1438.000  57444.000      5.862    41.5367    21.2407    51.6002   -52.3835     0.0409     0.0130    10.0000     5.0000     5.0000    10.0000    12.0000     8.0000     8.0000    12.0000    90.0031    -0.0010     2.3311     0.0000     0.0000     0.0000    14.4503    14.4503     0.0000     0.0000     0.0000   300.000
     13   -26.3997      6.000    326.000  57610.000      5.879    41.5367    21.2407    51.6002   -52.3835     0.0409     0.0130    10.0000     5.0000     5.0000    10.0000    12.0000     8.0000     8.0000    12.0000    90.0031    -0.0010     2.3311     0.0000     0.0000     0.0000    14.4503    14.4503     0.0000     0.0000     0.0000   300.000
     14   -26.5000      6.000     80.000  57504.000      5.868    41.5367    21.2407    51.6002   -52.3835     0.0409     0.0130    10.0000     5.0000     5.0000    10.0000    12.0000     8.0000     8.0000    12.0000    90.0031    -0.0010     2.3311     0.0000     0.0000     0.0000    14.4503    14.4503     0.0000     0.0000     0.0000   300.000
     15   -26.6002      6.000     34.000  57178.000      5.834    41.5367    21.2407    51.6002   -52.3835     0.0409     0.0130    10.0000     5.0000     5.0000    10.0000    12.0000     8.0000     8.0000    12.0000    90.0031    -0.0010     2.3311     0.0000     0.0000     0.0000    14.4503    14.4503     0.0000     0.0000     0.0000   300.000
     16   -26.7001      6.000     22.000  57262.000      5.843    41.5367    21.2407    51.6002   -52.3835     0.0409     0.0130    10.0000     5.0000     5.0000    10.0000    12.0000     8.0000     8.0000    12.0000    90.0031    -0.0010     2.3311     0.0000     0.0000     0.0000    14.4503    14.4503     0.0000     0.0000     0.0000   300.000
     17   -26.8002      6.000     27.000  57338.000      5.851    41.5367    21.2407    51.6002   -52.3835     0.0409     0.0130    10.0000     5.0000     5.0000    10.0000    12.0000     8.0000     8.0000    12.0000    90.0031    -0.0010     2.3311     0.0000     0.0000     0.0000    14.4503    14.4503     0.0000     0.0000     0.0000   300.000
     18   -26.9001      6.000     23.000  57508.000      5.868    41.5367    21.2407    51.6002   -52.3834     0.0409     0.0130    10.0000     5.0000     5.0000    10.0000    12.0000     8.0000     8.0000    12.0000    90.0031    -0.0010     2.3311     0.0000     0.0000     0.0000    14.4503    14.4503     0.0000     0.0000     0.0000   300.000
     19   -26.9997      6.000     21.000  57174.000      5.834    41.5367    21.2407    51.6002   -52.3835     0.0409     0.0130    10.0000     5.0000     5.0000    10.0000    12.0000     8.0000     8.0000    12.0000    90.0031    -0.0010     2.3311     0.0000     0.0000     0.0000    14.4503    14.4503     0.0000     0.0000     0.0000   300.000
     20   -27.0997      6.000     15.000  57355.000      5.853    41.5367    21.2407    51.6002   -52.3834     0.0409     0.0130    10.0000     5.0000     5.0000    10.0000    12.0000     8.0000     8.0000    12.0000    90.0031    -0.0010     2.3311     0.0000     0.0000     0.0000    14.4503    14.4503     0.0000     0.0000     0.0000   300.000
     21   -27.1995      6.000     16.000  57334.000      5.850    41.5367    21.2407    51.6002   -52.3835     0.0409     0.0130    10.0000     5.0000     5.0000    10.0000    12.0000     8.0000     8.0000    12.0000    90.0031    -0.0010     2.3311     0.0000     0.0000     0.0000    14.4503    14.4503     0.0000     0.0000     0.0000   300.000
# Sum of Counts = 16457
# Center of Mass = -26.074145+/-0.287445
# Full Width Half-Maximum = 0.356635+/-0.149023
# 4:22:22 AM  4/16/2024   scan completed.
