# scan = 184
# date = 4/10/2024
# time = 8:57:56 AM
# proposal = 33477
# experiment = Commissioning and enabling the 4-circle capability at VERITAS
# experiment_number = 1012
# command = scanrel chi 6 -6 1
# builtin_command = scan chi @(chi)+6 @(chi)+-6 1.000000
# users = Feng Ye, Mike McDowell, Adam Aczel, Bing Li, Wei Tian, Bing Li
# local_contact = Wei Tian, Adam Aczel
# scan_title = La2Ni7-FC, (-2 1 6), chi
# monochromator = PG002
# analyzer = Pg002
# sense = +-+
# collimation = 40-40-40-80
# samplename = La2Ni7, Al-doped CuFeO2
# sampletype = crystal
# samplemosaic = 30.000000
# latticeconstants = 
# ubmatrix = 
# mode = 0
# plane_normal = 0.000000,0.000000,0.000000
# ubconf = /C/SPICE/User/exp1012/UBConf/UB09Apr2024_32926PM.ini
# preset_type = normal 
# preset_channel = mcu
# preset_value = 10.000000
# def_x = chi
# def_y = detector
# col_headers = 
#   Pt.        chi       time   detector    monitor        mcu         m2        phi         s1         s2        sgl        sgu   slitb_bt   slitb_lf   slitb_rt   slitb_tp   slita_bt   slita_lf   slita_rt   slita_tp         a1         a2          q          h          k          l         ei         ef          e
      1   -42.6465     10.941     89.000 106661.000     10.000    41.5367   128.0543   -33.6339   -67.2675     0.0409     0.0130    20.0000    10.0000    10.0000    20.0000    10.0000    10.0000    10.0000    10.0000    20.7604    -0.0013     2.9253     0.0000     0.0000     0.0000    14.4503    14.4503     0.000
      2   -43.6467     10.999     58.000 106661.000     10.000    41.5367   128.0543   -33.6339   -67.2675     0.0409     0.0130    20.0000    10.0000    10.0000    20.0000    10.0000    10.0000    10.0000    10.0000    20.7604    -0.0013     2.9253     0.0000     0.0000     0.0000    14.4503    14.4503     0.000
      3   -44.6467     10.985     61.000 106661.000     10.000    41.5367   128.0543   -33.6339   -67.2675     0.0409     0.0130    20.0000    10.0000    10.0000    20.0000    10.0000    10.0000    10.0000    10.0000    20.7604    -0.0013     2.9253     0.0000     0.0000     0.0000    14.4503    14.4503     0.000
      4   -45.6465     11.042     72.000 106661.000     10.000    41.5367   128.0543   -33.6339   -67.2675     0.0409     0.0130    20.0000    10.0000    10.0000    20.0000    10.0000    10.0000    10.0000    10.0000    20.7604    -0.0013     2.9253     0.0000     0.0000     0.0000    14.4503    14.4503     0.000
      5   -46.6465     10.965    179.000 106661.000     10.000    41.5367   128.0543   -33.6339   -67.2675     0.0409     0.0130    20.0000    10.0000    10.0000    20.0000    10.0000    10.0000    10.0000    10.0000    20.7604    -0.0013     2.9253     0.0000     0.0000     0.0000    14.4503    14.4503     0.000
      6   -47.6467     10.999  16582.000 106661.000     10.000    41.5367   128.0543   -33.6339   -67.2675     0.0409     0.0130    20.0000    10.0000    10.0000    20.0000    10.0000    10.0000    10.0000    10.0000    20.7604    -0.0013     2.9253     0.0000     0.0000     0.0000    14.4503    14.4503     0.000
      7   -48.6467     11.030  53708.000 106661.000     10.000    41.5367   128.0543   -33.6340   -67.2675     0.0409     0.0130    20.0000    10.0000    10.0000    20.0000    10.0000    10.0000    10.0000    10.0000    20.7604    -0.0013     2.9253     0.0000     0.0000     0.0000    14.4503    14.4503     0.000
      8   -49.6467     10.938  38511.000 106661.000     10.000    41.5367   128.0543   -33.6340   -67.2675     0.0409     0.0130    20.0000    10.0000    10.0000    20.0000    10.0000    10.0000    10.0000    10.0000    20.7604    -0.0013     2.9253     0.0000     0.0000     0.0000    14.4503    14.4503     0.000
      9   -50.6467     10.962   4321.000 106661.000     10.000    41.5367   128.0543   -33.6340   -67.2675     0.0409     0.0130    20.0000    10.0000    10.0000    20.0000    10.0000    10.0000    10.0000    10.0000    20.7604    -0.0013     2.9253     0.0000     0.0000     0.0000    14.4503    14.4503     0.000
     10   -51.6467     10.979     83.000 106661.000     10.000    41.5367   128.0543   -33.6340   -67.2675     0.0409     0.0130    20.0000    10.0000    10.0000    20.0000    10.0000    10.0000    10.0000    10.0000    20.7604    -0.0013     2.9254     0.0000     0.0000     0.0000    14.4503    14.4503     0.000
     11   -52.6467     10.955     49.000 106661.000     10.000    41.5367   128.0543   -33.6340   -67.2675     0.0409     0.0130    20.0000    10.0000    10.0000    20.0000    10.0000    10.0000    10.0000    10.0000    20.7604    -0.0013     2.9253     0.0000     0.0000     0.0000    14.4503    14.4503     0.000
     12   -53.6467     11.008     95.000 106661.000     10.000    41.5367   128.0543   -33.6340   -67.2675     0.0409     0.0130    20.0000    10.0000    10.0000    20.0000    10.0000    10.0000    10.0000    10.0000    20.7604    -0.0013     2.9253     0.0000     0.0000     0.0000    14.4503    14.4503     0.000
     13   -54.6467     10.938     64.000 106661.000     10.000    41.5367   128.0543   -33.6340   -67.2675     0.0409     0.0130    20.0000    10.0000    10.0000    20.0000    10.0000    10.0000    10.0000    10.0000    20.7604    -0.0013     2.9253     0.0000     0.0000     0.0000    14.4503    14.4503     0.000
# Sum of Counts = 113872
# Center of Mass = -48.912199+/-0.205000
# Full Width Half-Maximum = 1.650537+/-0.169199
# 9:00:52 AM  4/10/2024   scan completed.
