# scan = 1960
# date = 4/15/2024
# time = 10:58:26 PM
# proposal = 33477
# experiment = Commissioning and enabling the 4-circle capability at VERITAS
# experiment_number = 1012
# command = scan s1 -27.86 -29.86 0.1
# builtin_command = scan s1 -27.86 -29.86 0.1
# users = Feng Ye, Mike McDowell, Adam Aczel, Bing Li, Wei Tian, Bing Li
# local_contact = Wei Tian, Adam Aczel
# scan_title = Nuclear_300K_2axis: (-1.00 2.00 0.00 )
# monochromator = PG002
# analyzer = Pg002
# sense = +-+
# collimation = 40-40-40-80
# samplename = La2Ni7, Al-doped CuFeO2
# sampletype = crystal
# samplemosaic = 30.000000
# latticeconstants = 5.263000,5.582000,7.591000,90.000000,90.000000,90.000000
# ubmatrix = -0.000000,0.179117,-0.000000,-0.000000,0.003291,-0.000000,-0.000000,0.000127,-0.000000
# mode = 0
# plane_normal = -0.000714,0.000226,1.000000
# ubconf = UB15Apr2024_11557PM.ini
# preset_type = normal 
# preset_channel = time
# preset_value = 4.000000
# def_x = s1
# def_y = detector
# col_headers = 
#   Pt.         s1       time   detector    monitor        mcu         m2        chi        phi         s2        sgl        sgu   slitb_bt   slitb_lf   slitb_rt   slitb_tp   slita_bt   slita_lf   slita_rt   slita_tp         a1         a2          q          h          k          l         ei         ef          e    coldtip     sample       temp
      1   -27.8599      4.000      5.000  38472.000      3.926    41.5367    23.9610   104.0200   -57.7027     0.0409     0.0130    10.0000     5.0000     5.0000    10.0000    12.0000     8.0000     8.0000    12.0000    90.0031    -0.0009     2.5485     0.0000     0.0000     0.0000    14.4503    14.4503     0.0000     0.0000     0.0000   300.000
      2   -27.9596      4.000      5.000  37845.000      3.862    41.5367    23.9610   104.0200   -57.7026     0.0409     0.0130    10.0000     5.0000     5.0000    10.0000    12.0000     8.0000     8.0000    12.0000    90.0031    -0.0009     2.5485     0.0000     0.0000     0.0000    14.4503    14.4503     0.0000     0.0000     0.0000   300.000
      3   -28.0599      4.000     12.000  38254.000      3.903    41.5367    23.9610   104.0200   -57.7026     0.0409     0.0130    10.0000     5.0000     5.0000    10.0000    12.0000     8.0000     8.0000    12.0000    90.0031    -0.0009     2.5485     0.0000     0.0000     0.0000    14.4503    14.4503     0.0000     0.0000     0.0000   300.000
      4   -28.1597      4.000     15.000  38051.000      3.883    41.5367    23.9610   104.0200   -57.7026     0.0409     0.0130    10.0000     5.0000     5.0000    10.0000    12.0000     8.0000     8.0000    12.0000    90.0031    -0.0009     2.5485     0.0000     0.0000     0.0000    14.4503    14.4503     0.0000     0.0000     0.0000   300.000
      5   -28.2595      4.000     10.000  38496.000      3.928    41.5367    23.9610   104.0200   -57.7026     0.0409     0.0130    10.0000     5.0000     5.0000    10.0000    12.0000     8.0000     8.0000    12.0000    90.0031    -0.0009     2.5485     0.0000     0.0000     0.0000    14.4503    14.4503     0.0000     0.0000     0.0000   300.000
      6   -28.3596      4.000     18.000  38373.000      3.916    41.5367    23.9610   104.0200   -57.7026     0.0409     0.0130    10.0000     5.0000     5.0000    10.0000    12.0000     8.0000     8.0000    12.0000    90.0031    -0.0009     2.5485     0.0000     0.0000     0.0000    14.4503    14.4503     0.0000     0.0000     0.0000   300.000
      7   -28.4600      4.000    118.000  38152.000      3.893    41.5367    23.9610   104.0200   -57.7025     0.0409     0.0130    10.0000     5.0000     5.0000    10.0000    12.0000     8.0000     8.0000    12.0000    90.0031    -0.0009     2.5485     0.0000     0.0000     0.0000    14.4503    14.4503     0.0000     0.0000     0.0000   300.000
      8   -28.5602      4.000    418.000  38579.000      3.937    41.5367    23.9610   104.0200   -57.7025     0.0409     0.0130    10.0000     5.0000     5.0000    10.0000    12.0000     8.0000     8.0000    12.0000    90.0031    -0.0009     2.5485     0.0000     0.0000     0.0000    14.4503    14.4503     0.0000     0.0000     0.0000   300.000
      9   -28.6598      4.000    755.000  38375.000      3.916    41.5367    23.9610   104.0200   -57.7025     0.0409     0.0130    10.0000     5.0000     5.0000    10.0000    12.0000     8.0000     8.0000    12.0000    90.0030    -0.0009     2.5485     0.0000     0.0000     0.0000    14.4503    14.4503     0.0000     0.0000     0.0000   300.000
     10   -28.7604      4.000    862.000  38416.000      3.920    41.5367    23.9610   104.0200   -57.7025     0.0409     0.0130    10.0000     5.0000     5.0000    10.0000    12.0000     8.0000     8.0000    12.0000    90.0031    -0.0009     2.5485     0.0000     0.0000     0.0000    14.4503    14.4503     0.0000     0.0000     0.0000   300.000
     11   -28.8600      4.000    643.000  38595.000      3.938    41.5367    23.9610   104.0200   -57.7025     0.0409     0.0130    10.0000     5.0000     5.0000    10.0000    12.0000     8.0000     8.0000    12.0000    90.0031    -0.0009     2.5485     0.0000     0.0000     0.0000    14.4503    14.4503     0.0000     0.0000     0.0000   300.000
     12   -28.9598      4.000    373.000  38352.000      3.913    41.5367    23.9610   104.0200   -57.7025     0.0409     0.0130    10.0000     5.0000     5.0000    10.0000    12.0000     8.0000     8.0000    12.0000    90.0031    -0.0009     2.5485     0.0000     0.0000     0.0000    14.4503    14.4503     0.0000     0.0000     0.0000   300.000
     13   -29.0596      4.000     82.000  38392.000      3.918    41.5367    23.9610   104.0200   -57.7025     0.0409     0.0130    10.0000     5.0000     5.0000    10.0000    12.0000     8.0000     8.0000    12.0000    90.0030    -0.0009     2.5485     0.0000     0.0000     0.0000    14.4503    14.4503     0.0000     0.0000     0.0000   300.000
     14   -29.1598      4.000     21.000  38472.000      3.926    41.5367    23.9610   104.0200   -57.7025     0.0409     0.0130    10.0000     5.0000     5.0000    10.0000    12.0000     8.0000     8.0000    12.0000    90.0031    -0.0009     2.5485     0.0000     0.0000     0.0000    14.4503    14.4503     0.0000     0.0000     0.0000   300.000
     15   -29.2596      4.000     12.000  38408.000      3.919    41.5367    23.9610   104.0200   -57.7025     0.0409     0.0130    10.0000     5.0000     5.0000    10.0000    12.0000     8.0000     8.0000    12.0000    90.0030    -0.0009     2.5485     0.0000     0.0000     0.0000    14.4503    14.4503     0.0000     0.0000     0.0000   300.000
     16   -29.3595      4.000      9.000  38043.000      3.882    41.5367    23.9610   104.0200   -57.7025     0.0409     0.0130    10.0000     5.0000     5.0000    10.0000    12.0000     8.0000     8.0000    12.0000    90.0030    -0.0009     2.5485     0.0000     0.0000     0.0000    14.4503    14.4503     0.0000     0.0000     0.0000   300.000
     17   -29.4599      4.000     13.000  38598.000      3.939    41.5367    23.9610   104.0200   -57.7025     0.0409     0.0130    10.0000     5.0000     5.0000    10.0000    12.0000     8.0000     8.0000    12.0000    90.0030    -0.0009     2.5485     0.0000     0.0000     0.0000    14.4503    14.4503     0.0000     0.0000     0.0000   300.000
     18   -29.5603      4.000     10.000  38092.000      3.887    41.5367    23.9610   104.0200   -57.7025     0.0409     0.0130    10.0000     5.0000     5.0000    10.0000    12.0000     8.0000     8.0000    12.0000    90.0030    -0.0009     2.5485     0.0000     0.0000     0.0000    14.4503    14.4503     0.0000     0.0000     0.0000   300.000
     19   -29.6599      4.000     10.000  38569.000      3.936    41.5367    23.9610   104.0200   -57.7025     0.0409     0.0130    10.0000     5.0000     5.0000    10.0000    12.0000     8.0000     8.0000    12.0000    90.0030    -0.0009     2.5485     0.0000     0.0000     0.0000    14.4503    14.4503     0.0000     0.0000     0.0000   300.000
     20   -29.7606      4.000      7.000  38301.000      3.908    41.5367    23.9610   104.0200   -57.7025     0.0409     0.0130    10.0000     5.0000     5.0000    10.0000    12.0000     8.0000     8.0000    12.0000    90.0031    -0.0009     2.5485     0.0000     0.0000     0.0000    14.4503    14.4503     0.0000     0.0000     0.0000   300.000
     21   -29.8598      4.000     12.000  38064.000      3.884    41.5367    23.9610   104.0200   -57.7025     0.0409     0.0130    10.0000     5.0000     5.0000    10.0000    12.0000     8.0000     8.0000    12.0000    90.0030    -0.0009     2.5485     0.0000     0.0000     0.0000    14.4503    14.4503     0.0000     0.0000     0.0000   300.000
# Sum of Counts = 3410
# Center of Mass = -28.759161+/-0.696497
# Full Width Half-Maximum = 0.404488+/-0.319921
# 11:01:06 PM  4/15/2024   scan completed.
