# scan = 1806
# date = 4/15/2024
# time = 3:17:31 PM
# proposal = 33477
# experiment = Commissioning and enabling the 4-circle capability at VERITAS
# experiment_number = 1012
# command = scan slita_bt 0 20 1
# builtin_command = scan slita_bt 0 20 1
# users = Feng Ye, Mike McDowell, Adam Aczel, Bing Li, Wei Tian, Bing Li
# local_contact = Wei Tian, Adam Aczel
# scan_title = ErFeO3, initial peak search [020]
# monochromator = PG002
# analyzer = Pg002
# sense = +-+
# collimation = 40-40-40-80
# samplename = La2Ni7, Al-doped CuFeO2
# sampletype = crystal
# samplemosaic = 30.000000
# latticeconstants = 5.263000,5.582000,7.591000,90.000000,90.000000,90.000000
# ubmatrix = -0.000000,0.179117,-0.000000,-0.000000,0.003291,-0.000000,-0.000000,0.000127,-0.000000
# mode = 0
# plane_normal = -0.000714,0.000226,1.000000
# ubconf = UB15Apr2024_11557PM.ini
# preset_type = normal 
# preset_channel = mcu
# preset_value = 3.000000
# def_x = slita_bt
# def_y = detector
# col_headers = 
#   Pt.   slita_bt       time   detector    monitor        mcu         m2        chi        phi         s1         s2        sgl        sgu   slitb_bt   slitb_lf   slitb_rt   slitb_tp   slita_lf   slita_rt   slita_tp         a1         a2          q          h          k          l         ei         ef          e    coldtip     sample       temp
      1     0.0000      3.077    630.000  29401.000      3.000    41.5367   -49.7293   119.5662   -18.0738   -36.1478     0.0409     0.0130    11.0000     8.0000     8.0000    11.0000     8.0000     8.0000    15.0000    90.0030    -0.0008     1.6386     0.0000     0.0000     0.0000    14.4503    14.4503     0.0000     0.0000     0.0000   300.000
      2     1.0000      3.077    673.000  29401.000      3.000    41.5367   -49.7293   119.5662   -18.0738   -36.1478     0.0409     0.0130    11.0000     8.0000     8.0000    11.0000     8.0000     8.0000    15.0000    90.0030    -0.0008     1.6386     0.0000     0.0000     0.0000    14.4503    14.4503     0.0000     0.0000     0.0000   300.000
      3     2.0000      3.088    701.000  29401.000      3.000    41.5367   -49.7293   119.5662   -18.0738   -36.1478     0.0409     0.0130    11.0000     8.0000     8.0000    11.0000     8.0000     8.0000    15.0000    90.0030    -0.0008     1.6386     0.0000     0.0000     0.0000    14.4503    14.4503     0.0000     0.0000     0.0000   300.000
      4     3.0000      3.090    784.000  29401.000      3.000    41.5367   -49.7293   119.5662   -18.0738   -36.1478     0.0409     0.0130    11.0000     8.0000     8.0000    11.0000     8.0000     8.0000    15.0000    90.0030    -0.0008     1.6386     0.0000     0.0000     0.0000    14.4503    14.4503     0.0000     0.0000     0.0000   300.000
      5     4.0000      3.092    802.000  29401.000      3.000    41.5367   -49.7293   119.5662   -18.0738   -36.1478     0.0409     0.0130    11.0000     8.0000     8.0000    11.0000     8.0000     8.0000    15.0000    90.0030    -0.0008     1.6386     0.0000     0.0000     0.0000    14.4503    14.4503     0.0000     0.0000     0.0000   300.000
      6     5.0000      3.072    926.000  29401.000      3.000    41.5367   -49.7293   119.5662   -18.0738   -36.1478     0.0409     0.0130    11.0000     8.0000     8.0000    11.0000     8.0000     8.0000    15.0000    90.0030    -0.0008     1.6386     0.0000     0.0000     0.0000    14.4503    14.4503     0.0000     0.0000     0.0000   300.000
      7     6.0000      3.104    968.000  29401.000      3.000    41.5367   -49.7293   119.5662   -18.0738   -36.1478     0.0409     0.0130    11.0000     8.0000     8.0000    11.0000     8.0000     8.0000    15.0000    90.0030    -0.0008     1.6386     0.0000     0.0000     0.0000    14.4503    14.4503     0.0000     0.0000     0.0000   300.000
      8     7.0000      3.103   1031.000  29401.000      3.000    41.5367   -49.7293   119.5662   -18.0738   -36.1478     0.0409     0.0130    11.0000     8.0000     8.0000    11.0000     8.0000     8.0000    15.0000    90.0030    -0.0008     1.6386     0.0000     0.0000     0.0000    14.4503    14.4503     0.0000     0.0000     0.0000   300.000
      9     8.0000      3.077   1023.000  29401.000      3.000    41.5367   -49.7293   119.5662   -18.0738   -36.1478     0.0409     0.0130    11.0000     8.0000     8.0000    11.0000     8.0000     8.0000    15.0000    90.0030    -0.0008     1.6386     0.0000     0.0000     0.0000    14.4503    14.4503     0.0000     0.0000     0.0000   300.000
     10     9.0000      3.066    966.000  29401.000      3.000    41.5367   -49.7293   119.5662   -18.0738   -36.1478     0.0409     0.0130    11.0000     8.0000     8.0000    11.0000     8.0000     8.0000    15.0000    90.0030    -0.0008     1.6386     0.0000     0.0000     0.0000    14.4503    14.4503     0.0000     0.0000     0.0000   300.000
     11    10.0000      3.078    975.000  29401.000      3.000    41.5367   -49.7293   119.5662   -18.0738   -36.1478     0.0409     0.0130    11.0000     8.0000     8.0000    11.0000     8.0000     8.0000    15.0000    90.0030    -0.0008     1.6386     0.0000     0.0000     0.0000    14.4503    14.4503     0.0000     0.0000     0.0000   300.000
     12    11.0000      3.094   1050.000  29401.000      3.000    41.5367   -49.7293   119.5662   -18.0738   -36.1478     0.0409     0.0130    11.0000     8.0000     8.0000    11.0000     8.0000     8.0000    15.0000    90.0030    -0.0008     1.6386     0.0000     0.0000     0.0000    14.4503    14.4503     0.0000     0.0000     0.0000   300.000
     13    12.0000      3.085   1041.000  29401.000      3.000    41.5367   -49.7293   119.5662   -18.0738   -36.1478     0.0409     0.0130    11.0000     8.0000     8.0000    11.0000     8.0000     8.0000    15.0000    90.0030    -0.0008     1.6386     0.0000     0.0000     0.0000    14.4503    14.4503     0.0000     0.0000     0.0000   300.000
     14    13.0000      3.120   1084.000  29401.000      3.000    41.5367   -49.7293   119.5662   -18.0738   -36.1478     0.0409     0.0130    11.0000     8.0000     8.0000    11.0000     8.0000     8.0000    15.0000    90.0030    -0.0008     1.6386     0.0000     0.0000     0.0000    14.4503    14.4503     0.0000     0.0000     0.0000   300.000
     15    14.0000      3.091   1063.000  29401.000      3.000    41.5367   -49.7293   119.5662   -18.0738   -36.1478     0.0409     0.0130    11.0000     8.0000     8.0000    11.0000     8.0000     8.0000    15.0000    90.0030    -0.0008     1.6386     0.0000     0.0000     0.0000    14.4503    14.4503     0.0000     0.0000     0.0000   300.000
     16    15.0000      3.123   1003.000  29401.000      3.000    41.5367   -49.7293   119.5662   -18.0738   -36.1478     0.0409     0.0130    11.0000     8.0000     8.0000    11.0000     8.0000     8.0000    15.0000    90.0030    -0.0008     1.6386     0.0000     0.0000     0.0000    14.4503    14.4503     0.0000     0.0000     0.0000   300.000
     17    16.0000      3.088   1055.000  29401.000      3.000    41.5367   -49.7293   119.5662   -18.0738   -36.1478     0.0409     0.0130    11.0000     8.0000     8.0000    11.0000     8.0000     8.0000    15.0000    90.0030    -0.0008     1.6386     0.0000     0.0000     0.0000    14.4503    14.4503     0.0000     0.0000     0.0000   300.000
     18    17.0000      3.123   1042.000  29401.000      3.000    41.5367   -49.7293   119.5662   -18.0738   -36.1478     0.0409     0.0130    11.0000     8.0000     8.0000    11.0000     8.0000     8.0000    15.0000    90.0030    -0.0008     1.6386     0.0000     0.0000     0.0000    14.4503    14.4503     0.0000     0.0000     0.0000   300.000
     19    18.0000      3.116   1088.000  29401.000      3.000    41.5367   -49.7293   119.5662   -18.0738   -36.1478     0.0409     0.0130    11.0000     8.0000     8.0000    11.0000     8.0000     8.0000    15.0000    90.0030    -0.0008     1.6386     0.0000     0.0000     0.0000    14.4503    14.4503     0.0000     0.0000     0.0000   300.000
     20    19.0000      3.123   1034.000  29401.000      3.000    41.5367   -49.7293   119.5662   -18.0738   -36.1478     0.0409     0.0130    11.0000     8.0000     8.0000    11.0000     8.0000     8.0000    15.0000    90.0030    -0.0008     1.6386     0.0000     0.0000     0.0000    14.4503    14.4503     0.0000     0.0000     0.0000   300.000
     21    20.0000      3.098   1056.000  29401.000      3.000    41.5367   -49.7293   119.5662   -18.0738   -36.1478     0.0409     0.0130    11.0000     8.0000     8.0000    11.0000     8.0000     8.0000    15.0000    90.0030    -0.0008     1.6386     0.0000     0.0000     0.0000    14.4503    14.4503     0.0000     0.0000     0.0000   300.000
# Sum of Counts = 19995
# Center of Mass = 10.748837+/-0.115103
# Full Width Half-Maximum = 11.633347+/-0.085323
# 3:20:35 PM  4/15/2024   scan completed.
