# scan = 2022
# date = 4/16/2024
# time = 3:55:31 AM
# proposal = 33477
# experiment = Commissioning and enabling the 4-circle capability at VERITAS
# experiment_number = 1012
# command = scan s1 -43.41 -45.41 0.1
# builtin_command = scan s1 -43.41 -45.41 0.1
# users = Feng Ye, Mike McDowell, Adam Aczel, Bing Li, Wei Tian, Bing Li
# local_contact = Wei Tian, Adam Aczel
# scan_title = Nuclear_300K_2axis: (-1.00 -1.00 4.00 )
# monochromator = PG002
# analyzer = Pg002
# sense = +-+
# collimation = 40-40-40-80
# samplename = La2Ni7, Al-doped CuFeO2
# sampletype = crystal
# samplemosaic = 30.000000
# latticeconstants = 5.263000,5.582000,7.591000,90.000000,90.000000,90.000000
# ubmatrix = -0.000000,0.179117,-0.000000,-0.000000,0.003291,-0.000000,-0.000000,0.000127,-0.000000
# mode = 0
# plane_normal = -0.000714,0.000226,1.000000
# ubconf = UB15Apr2024_11557PM.ini
# preset_type = normal 
# preset_channel = time
# preset_value = 9.000000
# def_x = s1
# def_y = detector
# col_headers = 
#   Pt.         s1       time   detector    monitor        mcu         m2        chi        phi         s2        sgl        sgu   slitb_bt   slitb_lf   slitb_rt   slitb_tp   slita_bt   slita_lf   slita_rt   slita_tp         a1         a2          q          h          k          l         ei         ef          e    coldtip     sample       temp
      1   -43.4093      9.000     12.000  85985.000      8.774    41.5367    11.3402     1.3302   -88.8352     0.0409     0.0130    10.0000     5.0000     5.0000    10.0000    12.0000     8.0000     8.0000    12.0000    90.0027    -0.0010     3.6965     0.0000     0.0000     0.0000    14.4503    14.4503     0.0000     0.0000     0.0000   300.000
      2   -43.5097      9.000     11.000  85789.000      8.754    41.5367    11.3402     1.3302   -88.8352     0.0409     0.0130    10.0000     5.0000     5.0000    10.0000    12.0000     8.0000     8.0000    12.0000    90.0027    -0.0010     3.6965     0.0000     0.0000     0.0000    14.4503    14.4503     0.0000     0.0000     0.0000   300.000
      3   -43.6102      9.000     11.000  86161.000      8.792    41.5367    11.3402     1.3302   -88.8351     0.0409     0.0130    10.0000     5.0000     5.0000    10.0000    12.0000     8.0000     8.0000    12.0000    90.0027    -0.0010     3.6965     0.0000     0.0000     0.0000    14.4503    14.4503     0.0000     0.0000     0.0000   300.000
      4   -43.7103      9.000     23.000  86183.000      8.794    41.5367    11.3402     1.3302   -88.8351     0.0409     0.0130    10.0000     5.0000     5.0000    10.0000    12.0000     8.0000     8.0000    12.0000    90.0027    -0.0010     3.6965     0.0000     0.0000     0.0000    14.4503    14.4503     0.0000     0.0000     0.0000   300.000
      5   -43.8101      9.000     25.000  86390.000      8.815    41.5367    11.3402     1.3302   -88.8351     0.0409     0.0130    10.0000     5.0000     5.0000    10.0000    12.0000     8.0000     8.0000    12.0000    90.0027    -0.0010     3.6965     0.0000     0.0000     0.0000    14.4503    14.4503     0.0000     0.0000     0.0000   300.000
      6   -43.9101      9.000     27.000  86361.000      8.812    41.5367    11.3402     1.3302   -88.8351     0.0409     0.0130    10.0000     5.0000     5.0000    10.0000    12.0000     8.0000     8.0000    12.0000    90.0027    -0.0010     3.6965     0.0000     0.0000     0.0000    14.4503    14.4503     0.0000     0.0000     0.0000   300.000
      7   -44.0100      9.000    193.000  86355.000      8.812    41.5367    11.3402     1.3302   -88.8351     0.0409     0.0130    10.0000     5.0000     5.0000    10.0000    12.0000     8.0000     8.0000    12.0000    90.0027    -0.0010     3.6965     0.0000     0.0000     0.0000    14.4503    14.4503     0.0000     0.0000     0.0000   300.000
      8   -44.1098      9.000    687.000  86188.000      8.795    41.5367    11.3402     1.3302   -88.8351     0.0409     0.0130    10.0000     5.0000     5.0000    10.0000    12.0000     8.0000     8.0000    12.0000    90.0027    -0.0010     3.6965     0.0000     0.0000     0.0000    14.4503    14.4503     0.0000     0.0000     0.0000   300.000
      9   -44.2096      9.000   1381.000  86424.000      8.819    41.5367    11.3402     1.3302   -88.8351     0.0409     0.0130    10.0000     5.0000     5.0000    10.0000    12.0000     8.0000     8.0000    12.0000    90.0027    -0.0010     3.6965     0.0000     0.0000     0.0000    14.4503    14.4503     0.0000     0.0000     0.0000   300.000
     10   -44.3095      9.000   1663.000  86311.000      8.807    41.5367    11.3402     1.3302   -88.8351     0.0409     0.0130    10.0000     5.0000     5.0000    10.0000    12.0000     8.0000     8.0000    12.0000    90.0027    -0.0010     3.6965     0.0000     0.0000     0.0000    14.4503    14.4503     0.0000     0.0000     0.0000   300.000
     11   -44.4097      9.000   1354.000  85970.000      8.772    41.5367    11.3402     1.3302   -88.8351     0.0409     0.0130    10.0000     5.0000     5.0000    10.0000    12.0000     8.0000     8.0000    12.0000    90.0027    -0.0010     3.6965     0.0000     0.0000     0.0000    14.4503    14.4503     0.0000     0.0000     0.0000   300.000
     12   -44.5099      9.000    680.000  85857.000      8.761    41.5367    11.3402     1.3302   -88.8351     0.0409     0.0130    10.0000     5.0000     5.0000    10.0000    12.0000     8.0000     8.0000    12.0000    90.0027    -0.0010     3.6965     0.0000     0.0000     0.0000    14.4503    14.4503     0.0000     0.0000     0.0000   300.000
     13   -44.6103      9.000    208.000  85819.000      8.757    41.5367    11.3402     1.3302   -88.8351     0.0409     0.0130    10.0000     5.0000     5.0000    10.0000    12.0000     8.0000     8.0000    12.0000    90.0027    -0.0010     3.6965     0.0000     0.0000     0.0000    14.4503    14.4503     0.0000     0.0000     0.0000   300.000
     14   -44.7103      9.000     62.000  86261.000      8.802    41.5367    11.3402     1.3302   -88.8351     0.0409     0.0130    10.0000     5.0000     5.0000    10.0000    12.0000     8.0000     8.0000    12.0000    90.0027    -0.0010     3.6965     0.0000     0.0000     0.0000    14.4503    14.4503     0.0000     0.0000     0.0000   300.000
     15   -44.8100      9.000     19.000  85850.000      8.760    41.5367    11.3402     1.3302   -88.8351     0.0409     0.0130    10.0000     5.0000     5.0000    10.0000    12.0000     8.0000     8.0000    12.0000    90.0027    -0.0010     3.6965     0.0000     0.0000     0.0000    14.4503    14.4503     0.0000     0.0000     0.0000   300.000
     16   -44.9099      9.000     15.000  86244.000      8.800    41.5367    11.3402     1.3302   -88.8351     0.0409     0.0130    10.0000     5.0000     5.0000    10.0000    12.0000     8.0000     8.0000    12.0000    90.0027    -0.0010     3.6965     0.0000     0.0000     0.0000    14.4503    14.4503     0.0000     0.0000     0.0000   300.000
     17   -45.0099      9.000     21.000  86383.000      8.815    41.5367    11.3402     1.3302   -88.8351     0.0409     0.0130    10.0000     5.0000     5.0000    10.0000    12.0000     8.0000     8.0000    12.0000    90.0027    -0.0010     3.6965     0.0000     0.0000     0.0000    14.4503    14.4503     0.0000     0.0000     0.0000   300.000
     18   -45.1101      9.000      3.000  86171.000      8.793    41.5367    11.3402     1.3302   -88.8351     0.0409     0.0130    10.0000     5.0000     5.0000    10.0000    12.0000     8.0000     8.0000    12.0000    90.0027    -0.0010     3.6965     0.0000     0.0000     0.0000    14.4503    14.4503     0.0000     0.0000     0.0000   300.000
     19   -45.2093      9.000     20.000  85872.000      8.762    41.5367    11.3402     1.3302   -88.8351     0.0409     0.0130    10.0000     5.0000     5.0000    10.0000    12.0000     8.0000     8.0000    12.0000    90.0027    -0.0010     3.6965     0.0000     0.0000     0.0000    14.4503    14.4503     0.0000     0.0000     0.0000   300.000
     20   -45.3094      9.000     12.000  86367.000      8.813    41.5367    11.3402     1.3302   -88.8351     0.0409     0.0130    10.0000     5.0000     5.0000    10.0000    12.0000     8.0000     8.0000    12.0000    90.0027    -0.0010     3.6965     0.0000     0.0000     0.0000    14.4503    14.4503     0.0000     0.0000     0.0000   300.000
     21   -45.4096      9.000     13.000  85978.000      8.773    41.5367    11.3402     1.3302   -88.8351     0.0409     0.0130    10.0000     5.0000     5.0000    10.0000    12.0000     8.0000     8.0000    12.0000    90.0028    -0.0010     3.6965     0.0000     0.0000     0.0000    14.4503    14.4503     0.0000     0.0000     0.0000   300.000
# Sum of Counts = 6440
# Center of Mass = -44.316018+/-0.780971
# Full Width Half-Maximum = 0.382177+/-0.369842
# 3:59:57 AM  4/16/2024   scan completed.
