# scan = 250
# date = 4/10/2024
# time = 7:10:08 PM
# proposal = 33477
# experiment = Commissioning and enabling the 4-circle capability at VERITAS
# experiment_number = 1012
# command = th2th 2 -2 0.2
# builtin_command = scan s2 @(s2)+2 @(s2)+-2 0.200000 s1 @(s1)+(2/2) @(s1)+(-2/2) 0.100000
# users = Feng Ye, Mike McDowell, Adam Aczel, Bing Li, Wei Tian, Bing Li
# local_contact = Wei Tian, Adam Aczel
# scan_title = Ruby-FC, [0 1 1] th2th
# monochromator = PG002
# analyzer = Pg002
# sense = +-+
# collimation = 40-40-40-80
# samplename = La2Ni7, Al-doped CuFeO2
# sampletype = crystal
# samplemosaic = 30.000000
# latticeconstants = 13.649303,9.890496,7.024000,90.000000,90.000000,90.000000
# ubmatrix = -0.000052,0.101107,-0.000002,0.000017,0.000002,0.142369,0.073264,0.000072,-0.000032
# mode = 0
# plane_normal = -0.000714,0.000226,1.000000
# ubconf = UB10Apr2024_62322PM.ini
# preset_type = normal 
# preset_channel = mcu
# preset_value = 10.000000
# def_x = s2
# def_y = detector
# col_headers = 
#   Pt.         s2         s1       time   detector    monitor        mcu         m2        chi        phi        sgl        sgu   slitb_bt   slitb_lf   slitb_rt   slitb_tp   slita_bt   slita_lf   slita_rt   slita_tp         a1         a2          q          h          k          l         ei         ef          e
      1   -43.0579   -21.5412     10.987    716.000 106661.000     10.000    41.5367    27.5660  -140.6897     0.0409     0.0130    20.0000    10.0000    10.0000    20.0000    15.0000    10.0000    10.0000    15.0000    20.7603    -0.0010     1.9382     0.0000     3.0509     0.0004    14.4503    14.4503     0.000
      2   -43.2529   -21.6415     11.069    757.000 106661.000     10.000    41.5367    27.5660  -140.6897     0.0409     0.0130    20.0000    10.0000    10.0000    20.0000    15.0000    10.0000    10.0000    15.0000    20.7603    -0.0010     1.9465     0.0000     3.0641     0.0005    14.4503    14.4503     0.000
      3   -43.4547   -21.7410     11.020    730.000 106661.000     10.000    41.5367    27.5660  -140.6897     0.0409     0.0130    20.0000    10.0000    10.0000    20.0000    15.0000    10.0000    10.0000    15.0000    20.7603    -0.0010     1.9552     0.0000     3.0777     0.0005    14.4503    14.4503     0.000
      4   -43.6563   -21.8414     11.027    715.000 106661.000     10.000    41.5367    27.5660  -140.6897     0.0409     0.0130    20.0000    10.0000    10.0000    20.0000    15.0000    10.0000    10.0000    15.0000    20.7603    -0.0010     1.9638     0.0000     3.0913     0.0005    14.4503    14.4503     0.000
      5   -43.8565   -21.9409     11.100    771.000 106661.000     10.000    41.5367    27.5660  -140.6897     0.0409     0.0130    20.0000    10.0000    10.0000    20.0000    15.0000    10.0000    10.0000    15.0000    20.7603    -0.0011     1.9724     0.0000     3.1047     0.0004    14.4503    14.4503     0.000
      6   -44.0593   -22.0408     11.050    777.000 106661.000     10.000    41.5367    27.5660  -140.6897     0.0409     0.0130    20.0000    10.0000    10.0000    20.0000    15.0000    10.0000    10.0000    15.0000    20.7602    -0.0010     1.9810     0.0000     3.1184     0.0004    14.4503    14.4503     0.000
      7   -44.2600   -22.1406     11.053   1653.000 106661.000     10.000    41.5367    27.5660  -140.6897     0.0409     0.0130    20.0000    10.0000    10.0000    20.0000    15.0000    10.0000    10.0000    15.0000    20.7603    -0.0011     1.9896    -0.0000     3.1319     0.0004    14.4503    14.4503     0.000
      8   -44.4557   -22.2408     11.037   6152.000 106661.000     10.000    41.5367    27.5660  -140.6897     0.0409     0.0130    20.0000    10.0000    10.0000    20.0000    15.0000    10.0000    10.0000    15.0000    20.7603    -0.0010     1.9980     0.0000     3.1450     0.0005    14.4503    14.4503     0.000
      9   -44.6558   -22.3406     11.086  13794.000 106661.000     10.000    41.5367    27.5660  -140.6897     0.0409     0.0130    20.0000    10.0000    10.0000    20.0000    15.0000    10.0000    10.0000    15.0000    20.7602    -0.0010     2.0065     0.0000     3.1585     0.0005    14.4503    14.4503     0.000
     10   -44.8550   -22.4408     11.021  17139.000 106661.000     10.000    41.5367    27.5660  -140.6897     0.0409     0.0130    20.0000    10.0000    10.0000    20.0000    15.0000    10.0000    10.0000    15.0000    20.7602    -0.0010     2.0150     0.0000     3.1718     0.0005    14.4503    14.4503     0.000
     11   -45.0558   -22.5410     11.009  14730.000 106661.000     10.000    41.5367    27.5660  -140.6897     0.0409     0.0130    20.0000    10.0000    10.0000    20.0000    15.0000    10.0000    10.0000    15.0000    20.7602    -0.0010     2.0235     0.0000     3.1853     0.0005    14.4503    14.4503     0.000
     12   -45.2564   -22.6416     11.041  10808.000 106661.000     10.000    41.5367    27.5660  -140.6897     0.0409     0.0130    20.0000    10.0000    10.0000    20.0000    15.0000    10.0000    10.0000    15.0000    20.7602    -0.0010     2.0321     0.0000     3.1987     0.0005    14.4503    14.4503     0.000
     13   -45.4563   -22.7410     11.033   7465.000 106661.000     10.000    41.5367    27.5660  -140.6897     0.0409     0.0130    20.0000    10.0000    10.0000    20.0000    15.0000    10.0000    10.0000    15.0000    20.7602    -0.0010     2.0406     0.0000     3.2121     0.0005    14.4503    14.4503     0.000
     14   -45.6572   -22.8412     11.041   5139.000 106661.000     10.000    41.5367    27.5660  -140.6897     0.0409     0.0130    20.0000    10.0000    10.0000    20.0000    15.0000    10.0000    10.0000    15.0000    20.7602    -0.0010     2.0491     0.0000     3.2255     0.0005    14.4503    14.4503     0.000
     15   -45.8588   -22.9410     11.091   3486.000 106661.000     10.000    41.5367    27.5660  -140.6897     0.0409     0.0130    20.0000    10.0000    10.0000    20.0000    15.0000    10.0000    10.0000    15.0000    20.7602    -0.0010     2.0577     0.0000     3.2390     0.0004    14.4503    14.4503     0.000
     16   -46.0544   -23.0408     11.079   2347.000 106661.000     10.000    41.5367    27.5660  -140.6897     0.0409     0.0130    20.0000    10.0000    10.0000    20.0000    15.0000    10.0000    10.0000    15.0000    20.7602    -0.0010     2.0660     0.0000     3.2521     0.0005    14.4503    14.4503     0.000
     17   -46.2541   -23.1406     11.007   1371.000 106661.000     10.000    41.5367    27.5660  -140.6897     0.0409     0.0130    20.0000    10.0000    10.0000    20.0000    15.0000    10.0000    10.0000    15.0000    20.7602    -0.0010     2.0744    -0.0000     3.2654     0.0005    14.4503    14.4503     0.000
     18   -46.4533   -23.2406     11.034    924.000 106661.000     10.000    41.5367    27.5660  -140.6897     0.0409     0.0130    20.0000    10.0000    10.0000    20.0000    15.0000    10.0000    10.0000    15.0000    20.7602    -0.0010     2.0829     0.0000     3.2787     0.0005    14.4503    14.4503     0.000
     19   -46.6541   -23.3409     11.041    814.000 106661.000     10.000    41.5367    27.5660  -140.6897     0.0409     0.0130    20.0000    10.0000    10.0000    20.0000    15.0000    10.0000    10.0000    15.0000    20.7602    -0.0010     2.0914    -0.0000     3.2921     0.0005    14.4503    14.4503     0.000
     20   -46.8556   -23.4408     11.044    741.000 106661.000     10.000    41.5367    27.5660  -140.6897     0.0409     0.0130    20.0000    10.0000    10.0000    20.0000    15.0000    10.0000    10.0000    15.0000    20.7602    -0.0010     2.0999     0.0000     3.3055     0.0005    14.4503    14.4503     0.000
     21   -47.0561   -23.5411     11.096    752.000 106661.000     10.000    41.5367    27.5660  -140.6897     0.0409     0.0130    20.0000    10.0000    10.0000    20.0000    15.0000    10.0000    10.0000    15.0000    20.7602    -0.0010     2.1084     0.0000     3.3188     0.0005    14.4503    14.4503     0.000
# Sum of Counts = 91781
# Center of Mass = -45.053995+/-0.210326
# Full Width Half-Maximum = 1.252092+/-0.077535
# 7:14:44 PM  4/10/2024   scan completed.
