# scan = 1980
# date = 4/16/2024
# time = 12:11:59 AM
# proposal = 33477
# experiment = Commissioning and enabling the 4-circle capability at VERITAS
# experiment_number = 1012
# command = scan s1 -41.37 -43.37 0.1
# builtin_command = scan s1 -41.37 -43.37 0.1
# users = Feng Ye, Mike McDowell, Adam Aczel, Bing Li, Wei Tian, Bing Li
# local_contact = Wei Tian, Adam Aczel
# scan_title = Nuclear_300K_2axis: (1.00 -2.00 3.00 )
# monochromator = PG002
# analyzer = Pg002
# sense = +-+
# collimation = 40-40-40-80
# samplename = La2Ni7, Al-doped CuFeO2
# sampletype = crystal
# samplemosaic = 30.000000
# latticeconstants = 5.263000,5.582000,7.591000,90.000000,90.000000,90.000000
# ubmatrix = -0.000000,0.179117,-0.000000,-0.000000,0.003291,-0.000000,-0.000000,0.000127,-0.000000
# mode = 0
# plane_normal = -0.000714,0.000226,1.000000
# ubconf = UB15Apr2024_11557PM.ini
# preset_type = normal 
# preset_channel = time
# preset_value = 11.000000
# def_x = s1
# def_y = detector
# col_headers = 
#   Pt.         s1       time   detector    monitor        mcu         m2        chi        phi         s2        sgl        sgu   slitb_bt   slitb_lf   slitb_rt   slitb_tp   slita_bt   slita_lf   slita_rt   slita_tp         a1         a2          q          h          k          l         ei         ef          e    coldtip     sample       temp
      1   -41.3697     11.000     21.000 105687.000     10.784    41.5367   -23.6495   -27.3100   -84.7301     0.0409     0.0130    10.0000     5.0000     5.0000    10.0000    12.0000     8.0000     8.0000    12.0000    90.0028    -0.0009     3.5590     0.0000     0.0000     0.0000    14.4503    14.4503     0.0000     0.0000     0.0000   300.000
      2   -41.4700     11.000     21.000 105641.000     10.780    41.5367   -23.6495   -27.3100   -84.7301     0.0409     0.0130    10.0000     5.0000     5.0000    10.0000    12.0000     8.0000     8.0000    12.0000    90.0028    -0.0009     3.5590     0.0000     0.0000     0.0000    14.4503    14.4503     0.0000     0.0000     0.0000   300.000
      3   -41.5703     11.000     24.000 105736.000     10.789    41.5367   -23.6495   -27.3100   -84.7301     0.0409     0.0130    10.0000     5.0000     5.0000    10.0000    12.0000     8.0000     8.0000    12.0000    90.0028    -0.0009     3.5590     0.0000     0.0000     0.0000    14.4503    14.4503     0.0000     0.0000     0.0000   300.000
      4   -41.6702     11.000     25.000 106175.000     10.834    41.5367   -23.6495   -27.3100   -84.7301     0.0409     0.0130    10.0000     5.0000     5.0000    10.0000    12.0000     8.0000     8.0000    12.0000    90.0028    -0.0009     3.5590     0.0000     0.0000     0.0000    14.4503    14.4503     0.0000     0.0000     0.0000   300.000
      5   -41.7702     11.000     31.000 105640.000     10.780    41.5367   -23.6495   -27.3100   -84.7301     0.0409     0.0130    10.0000     5.0000     5.0000    10.0000    12.0000     8.0000     8.0000    12.0000    90.0028    -0.0009     3.5590     0.0000     0.0000     0.0000    14.4503    14.4503     0.0000     0.0000     0.0000   300.000
      6   -41.8697     11.000     66.000 105142.000     10.729    41.5367   -23.6495   -27.3100   -84.7301     0.0409     0.0130    10.0000     5.0000     5.0000    10.0000    12.0000     8.0000     8.0000    12.0000    90.0028    -0.0009     3.5590     0.0000     0.0000     0.0000    14.4503    14.4503     0.0000     0.0000     0.0000   300.000
      7   -41.9700     11.000    349.000 105778.000     10.794    41.5367   -23.6495   -27.3100   -84.7301     0.0409     0.0130    10.0000     5.0000     5.0000    10.0000    12.0000     8.0000     8.0000    12.0000    90.0028    -0.0009     3.5590     0.0000     0.0000     0.0000    14.4503    14.4503     0.0000     0.0000     0.0000   300.000
      8   -42.0699     11.000    904.000 105947.000     10.811    41.5367   -23.6495   -27.3100   -84.7301     0.0409     0.0130    10.0000     5.0000     5.0000    10.0000    12.0000     8.0000     8.0000    12.0000    90.0028    -0.0009     3.5590     0.0000     0.0000     0.0000    14.4503    14.4503     0.0000     0.0000     0.0000   300.000
      9   -42.1695     11.000   1688.000 105938.000     10.810    41.5367   -23.6495   -27.3100   -84.7301     0.0409     0.0130    10.0000     5.0000     5.0000    10.0000    12.0000     8.0000     8.0000    12.0000    90.0028    -0.0009     3.5590     0.0000     0.0000     0.0000    14.4503    14.4503     0.0000     0.0000     0.0000   300.000
     10   -42.2694     11.000   2053.000 105819.000     10.798    41.5367   -23.6495   -27.3100   -84.7301     0.0409     0.0130    10.0000     5.0000     5.0000    10.0000    12.0000     8.0000     8.0000    12.0000    90.0028    -0.0009     3.5590     0.0000     0.0000     0.0000    14.4503    14.4503     0.0000     0.0000     0.0000   300.000
     11   -42.3696     11.000   1721.000 105645.000     10.780    41.5367   -23.6495   -27.3100   -84.7301     0.0409     0.0130    10.0000     5.0000     5.0000    10.0000    12.0000     8.0000     8.0000    12.0000    90.0028    -0.0009     3.5590     0.0000     0.0000     0.0000    14.4503    14.4503     0.0000     0.0000     0.0000   300.000
     12   -42.4701     11.000    906.000 105867.000     10.803    41.5367   -23.6495   -27.3100   -84.7301     0.0409     0.0130    10.0000     5.0000     5.0000    10.0000    12.0000     8.0000     8.0000    12.0000    90.0028    -0.0009     3.5590     0.0000     0.0000     0.0000    14.4503    14.4503     0.0000     0.0000     0.0000   300.000
     13   -42.5702     11.000    272.000 105631.000     10.779    41.5367   -23.6495   -27.3100   -84.7301     0.0409     0.0130    10.0000     5.0000     5.0000    10.0000    12.0000     8.0000     8.0000    12.0000    90.0028    -0.0009     3.5590     0.0000     0.0000     0.0000    14.4503    14.4503     0.0000     0.0000     0.0000   300.000
     14   -42.6703     11.000     86.000 105206.000     10.735    41.5367   -23.6495   -27.3100   -84.7301     0.0409     0.0130    10.0000     5.0000     5.0000    10.0000    12.0000     8.0000     8.0000    12.0000    90.0029    -0.0009     3.5590     0.0000     0.0000     0.0000    14.4503    14.4503     0.0000     0.0000     0.0000   300.000
     15   -42.7700     11.000     34.000 105496.000     10.765    41.5367   -23.6495   -27.3100   -84.7301     0.0409     0.0130    10.0000     5.0000     5.0000    10.0000    12.0000     8.0000     8.0000    12.0000    90.0029    -0.0009     3.5590     0.0000     0.0000     0.0000    14.4503    14.4503     0.0000     0.0000     0.0000   300.000
     16   -42.8699     11.000     20.000 105722.000     10.788    41.5367   -23.6495   -27.3100   -84.7301     0.0409     0.0130    10.0000     5.0000     5.0000    10.0000    12.0000     8.0000     8.0000    12.0000    90.0029    -0.0009     3.5590     0.0000     0.0000     0.0000    14.4503    14.4503     0.0000     0.0000     0.0000   300.000
     17   -42.9699     11.000     27.000 105139.000     10.728    41.5367   -23.6495   -27.3100   -84.7301     0.0409     0.0130    10.0000     5.0000     5.0000    10.0000    12.0000     8.0000     8.0000    12.0000    90.0028    -0.0009     3.5590     0.0000     0.0000     0.0000    14.4503    14.4503     0.0000     0.0000     0.0000   300.000
     18   -43.0699     11.000     24.000 104847.000     10.699    41.5367   -23.6495   -27.3100   -84.7301     0.0409     0.0130    10.0000     5.0000     5.0000    10.0000    12.0000     8.0000     8.0000    12.0000    90.0028    -0.0009     3.5590     0.0000     0.0000     0.0000    14.4503    14.4503     0.0000     0.0000     0.0000   300.000
     19   -43.1695     11.000     18.000 105434.000     10.759    41.5367   -23.6495   -27.3100   -84.7301     0.0409     0.0130    10.0000     5.0000     5.0000    10.0000    12.0000     8.0000     8.0000    12.0000    90.0028    -0.0009     3.5590     0.0000     0.0000     0.0000    14.4503    14.4503     0.0000     0.0000     0.0000   300.000
     20   -43.2695     11.000     23.000 105357.000     10.751    41.5367   -23.6495   -27.3100   -84.7301     0.0409     0.0130    10.0000     5.0000     5.0000    10.0000    12.0000     8.0000     8.0000    12.0000    90.0028    -0.0009     3.5590     0.0000     0.0000     0.0000    14.4503    14.4503     0.0000     0.0000     0.0000   300.000
     21   -43.3696     11.000     31.000 105921.000     10.808    41.5367   -23.6495   -27.3100   -84.7301     0.0409     0.0130    10.0000     5.0000     5.0000    10.0000    12.0000     8.0000     8.0000    12.0000    90.0028    -0.0009     3.5590     0.0000     0.0000     0.0000    14.4503    14.4503     0.0000     0.0000     0.0000   300.000
# Sum of Counts = 8344
# Center of Mass = -42.275186+/-0.654510
# Full Width Half-Maximum = 0.418245+/-0.288820
# 12:17:11 AM  4/16/2024   scan completed.
