# scan = 1977
# date = 4/15/2024
# time = 11:57:35 PM
# proposal = 33477
# experiment = Commissioning and enabling the 4-circle capability at VERITAS
# experiment_number = 1012
# command = scan s1 -43.12 -45.12 0.1
# builtin_command = scan s1 -43.12 -45.12 0.1
# users = Feng Ye, Mike McDowell, Adam Aczel, Bing Li, Wei Tian, Bing Li
# local_contact = Wei Tian, Adam Aczel
# scan_title = Nuclear_300K_2axis: (-2.00 -2.00 2.00 )
# monochromator = PG002
# analyzer = Pg002
# sense = +-+
# collimation = 40-40-40-80
# samplename = La2Ni7, Al-doped CuFeO2
# sampletype = crystal
# samplemosaic = 30.000000
# latticeconstants = 5.263000,5.582000,7.591000,90.000000,90.000000,90.000000
# ubmatrix = -0.000000,0.179117,-0.000000,-0.000000,0.003291,-0.000000,-0.000000,0.000127,-0.000000
# mode = 0
# plane_normal = -0.000714,0.000226,1.000000
# ubconf = UB15Apr2024_11557PM.ini
# preset_type = normal 
# preset_channel = time
# preset_value = 7.000000
# def_x = s1
# def_y = detector
# col_headers = 
#   Pt.         s1       time   detector    monitor        mcu         m2        chi        phi         s2        sgl        sgu   slitb_bt   slitb_lf   slitb_rt   slitb_tp   slita_bt   slita_lf   slita_rt   slita_tp         a1         a2          q          h          k          l         ei         ef          e    coldtip     sample       temp
      1   -43.1199      7.000      9.000  67259.000      6.863    41.5367    37.5108   -27.7200   -88.2314     0.0409     0.0130    10.0000     5.0000     5.0000    10.0000    12.0000     8.0000     8.0000    12.0000    90.0027    -0.0010     3.6765     0.0000     0.0000     0.0000    14.4503    14.4503     0.0000     0.0000     0.0000   300.000
      2   -43.2191      7.000      8.000  67006.000      6.837    41.5367    37.5108   -27.7200   -88.2314     0.0409     0.0130    10.0000     5.0000     5.0000    10.0000    12.0000     8.0000     8.0000    12.0000    90.0027    -0.0009     3.6765     0.0000     0.0000     0.0000    14.4503    14.4503     0.0000     0.0000     0.0000   300.000
      3   -43.3195      7.000      9.000  67393.000      6.877    41.5367    37.5108   -27.7200   -88.2314     0.0409     0.0130    10.0000     5.0000     5.0000    10.0000    12.0000     8.0000     8.0000    12.0000    90.0027    -0.0009     3.6765     0.0000     0.0000     0.0000    14.4503    14.4503     0.0000     0.0000     0.0000   300.000
      4   -43.4197      7.000     14.000  67168.000      6.854    41.5367    37.5108   -27.7200   -88.2314     0.0409     0.0130    10.0000     5.0000     5.0000    10.0000    12.0000     8.0000     8.0000    12.0000    90.0027    -0.0010     3.6765     0.0000     0.0000     0.0000    14.4503    14.4503     0.0000     0.0000     0.0000   300.000
      5   -43.5202      7.000     11.000  67202.000      6.857    41.5367    37.5108   -27.7200   -88.2314     0.0409     0.0130    10.0000     5.0000     5.0000    10.0000    12.0000     8.0000     8.0000    12.0000    90.0027    -0.0009     3.6765     0.0000     0.0000     0.0000    14.4503    14.4503     0.0000     0.0000     0.0000   300.000
      6   -43.6200      7.000     15.000  66845.000      6.821    41.5367    37.5108   -27.7200   -88.2314     0.0409     0.0130    10.0000     5.0000     5.0000    10.0000    12.0000     8.0000     8.0000    12.0000    90.0027    -0.0010     3.6765     0.0000     0.0000     0.0000    14.4503    14.4503     0.0000     0.0000     0.0000   300.000
      7   -43.7204      7.000     46.000  67199.000      6.857    41.5367    37.5108   -27.7200   -88.2314     0.0409     0.0130    10.0000     5.0000     5.0000    10.0000    12.0000     8.0000     8.0000    12.0000    90.0027    -0.0010     3.6765     0.0000     0.0000     0.0000    14.4503    14.4503     0.0000     0.0000     0.0000   300.000
      8   -43.8203      7.000    330.000  67092.000      6.846    41.5367    37.5108   -27.7200   -88.2314     0.0409     0.0130    10.0000     5.0000     5.0000    10.0000    12.0000     8.0000     8.0000    12.0000    90.0027    -0.0009     3.6765     0.0000     0.0000     0.0000    14.4503    14.4503     0.0000     0.0000     0.0000   300.000
      9   -43.9198      7.000   1054.000  67654.000      6.903    41.5367    37.5108   -27.7200   -88.2314     0.0409     0.0130    10.0000     5.0000     5.0000    10.0000    12.0000     8.0000     8.0000    12.0000    90.0027    -0.0010     3.6765     0.0000     0.0000     0.0000    14.4503    14.4503     0.0000     0.0000     0.0000   300.000
     10   -44.0199      7.000   1712.000  66927.000      6.829    41.5367    37.5108   -27.7200   -88.2314     0.0409     0.0130    10.0000     5.0000     5.0000    10.0000    12.0000     8.0000     8.0000    12.0000    90.0027    -0.0010     3.6765     0.0000     0.0000     0.0000    14.4503    14.4503     0.0000     0.0000     0.0000   300.000
     11   -44.1197      7.000   1803.000  67340.000      6.871    41.5367    37.5108   -27.7200   -88.2314     0.0409     0.0130    10.0000     5.0000     5.0000    10.0000    12.0000     8.0000     8.0000    12.0000    90.0027    -0.0009     3.6765     0.0000     0.0000     0.0000    14.4503    14.4503     0.0000     0.0000     0.0000   300.000
     12   -44.2195      7.000   1302.000  67417.000      6.879    41.5367    37.5108   -27.7200   -88.2314     0.0409     0.0130    10.0000     5.0000     5.0000    10.0000    12.0000     8.0000     8.0000    12.0000    90.0027    -0.0010     3.6765     0.0000     0.0000     0.0000    14.4503    14.4503     0.0000     0.0000     0.0000   300.000
     13   -44.3195      7.000    493.000  67238.000      6.861    41.5367    37.5108   -27.7200   -88.2314     0.0409     0.0130    10.0000     5.0000     5.0000    10.0000    12.0000     8.0000     8.0000    12.0000    90.0027    -0.0009     3.6765     0.0000     0.0000     0.0000    14.4503    14.4503     0.0000     0.0000     0.0000   300.000
     14   -44.4196      7.000    107.000  67044.000      6.841    41.5367    37.5108   -27.7200   -88.2314     0.0409     0.0130    10.0000     5.0000     5.0000    10.0000    12.0000     8.0000     8.0000    12.0000    90.0027    -0.0010     3.6765     0.0000     0.0000     0.0000    14.4503    14.4503     0.0000     0.0000     0.0000   300.000
     15   -44.5202      7.000     29.000  67198.000      6.857    41.5367    37.5108   -27.7200   -88.2314     0.0409     0.0130    10.0000     5.0000     5.0000    10.0000    12.0000     8.0000     8.0000    12.0000    90.0027    -0.0009     3.6765     0.0000     0.0000     0.0000    14.4503    14.4503     0.0000     0.0000     0.0000   300.000
     16   -44.6200      7.000     10.000  67268.000      6.864    41.5367    37.5108   -27.7200   -88.2314     0.0409     0.0130    10.0000     5.0000     5.0000    10.0000    12.0000     8.0000     8.0000    12.0000    90.0027    -0.0009     3.6765     0.0000     0.0000     0.0000    14.4503    14.4503     0.0000     0.0000     0.0000   300.000
     17   -44.7203      7.000     13.000  67368.000      6.874    41.5367    37.5108   -27.7200   -88.2314     0.0409     0.0130    10.0000     5.0000     5.0000    10.0000    12.0000     8.0000     8.0000    12.0000    90.0027    -0.0009     3.6765     0.0000     0.0000     0.0000    14.4503    14.4503     0.0000     0.0000     0.0000   300.000
     18   -44.8203      7.000     10.000  67304.000      6.868    41.5367    37.5108   -27.7200   -88.2314     0.0409     0.0130    10.0000     5.0000     5.0000    10.0000    12.0000     8.0000     8.0000    12.0000    90.0027    -0.0009     3.6765     0.0000     0.0000     0.0000    14.4503    14.4503     0.0000     0.0000     0.0000   300.000
     19   -44.9199      7.000     11.000  67051.000      6.842    41.5367    37.5108   -27.7200   -88.2314     0.0409     0.0130    10.0000     5.0000     5.0000    10.0000    12.0000     8.0000     8.0000    12.0000    90.0027    -0.0009     3.6765     0.0000     0.0000     0.0000    14.4503    14.4503     0.0000     0.0000     0.0000   300.000
     20   -45.0199      7.000     10.000  67391.000      6.877    41.5367    37.5108   -27.7200   -88.2314     0.0409     0.0130    10.0000     5.0000     5.0000    10.0000    12.0000     8.0000     8.0000    12.0000    90.0027    -0.0009     3.6765     0.0000     0.0000     0.0000    14.4503    14.4503     0.0000     0.0000     0.0000   300.000
     21   -45.1198      7.000      4.000  67370.000      6.874    41.5367    37.5108   -27.7200   -88.2314     0.0409     0.0130    10.0000     5.0000     5.0000    10.0000    12.0000     8.0000     8.0000    12.0000    90.0027    -0.0009     3.6765     0.0000     0.0000     0.0000    14.4503    14.4503     0.0000     0.0000     0.0000   300.000
# Sum of Counts = 7000
# Center of Mass = -44.086521+/-0.745201
# Full Width Half-Maximum = 0.340049+/-0.397532
# 12:01:15 AM  4/16/2024   scan completed.
