# scan = 1862
# date = 4/15/2024
# time = 5:40:01 PM
# proposal = 33477
# experiment = Commissioning and enabling the 4-circle capability at VERITAS
# experiment_number = 1012
# command = th2th 2 -2 0.2
# builtin_command = scan s2 @(s2)+2 @(s2)+-2 0.200000 s1 @(s1)+(2/2) @(s1)+(-2/2) 0.100000
# users = Feng Ye, Mike McDowell, Adam Aczel, Bing Li, Wei Tian, Bing Li
# local_contact = Wei Tian, Adam Aczel
# scan_title = Nuclear_300K (0.00 0.00 2.00 )
# monochromator = PG002
# analyzer = Pg002
# sense = +-+
# collimation = 40-40-40-80
# samplename = La2Ni7, Al-doped CuFeO2
# sampletype = crystal
# samplemosaic = 30.000000
# latticeconstants = 5.263000,5.582000,7.591000,90.000000,90.000000,90.000000
# ubmatrix = -0.000000,0.179117,-0.000000,-0.000000,0.003291,-0.000000,-0.000000,0.000127,-0.000000
# mode = 0
# plane_normal = -0.000714,0.000226,1.000000
# ubconf = UB15Apr2024_11557PM.ini
# preset_type = normal 
# preset_channel = mcu
# preset_value = 1.000000
# def_x = s2
# def_y = detector
# col_headers = 
#   Pt.         s2         s1       time   detector    monitor        mcu         m2        chi        phi        sgl        sgu   slitb_bt   slitb_lf   slitb_rt   slitb_tp   slita_bt   slita_lf   slita_rt   slita_tp         a1         a2          q          h          k          l         ei         ef          e    coldtip     sample       temp
      1   -34.5379   -17.3205      1.041      1.000   9801.000      1.000    41.5367    -9.3283    18.3001     0.0409     0.0130    10.0000     5.0000     5.0000    10.0000    12.0000     8.0000     8.0000    12.0000    90.0032    -0.0008     1.5679     0.0000     0.0000     0.0000    14.4503    14.4503     0.0000     0.0000     0.0000   300.000
      2   -34.7372   -17.4201      1.022      4.000   9801.000      1.000    41.5367    -9.3283    18.3001     0.0409     0.0130    10.0000     5.0000     5.0000    10.0000    12.0000     8.0000     8.0000    12.0000    90.0031    -0.0008     1.5766     0.0000     0.0000     0.0000    14.4503    14.4503     0.0000     0.0000     0.0000   300.000
      3   -34.9366   -17.5209      1.028      2.000   9801.000      1.000    41.5367    -9.3283    18.3001     0.0409     0.0130    10.0000     5.0000     5.0000    10.0000    12.0000     8.0000     8.0000    12.0000    90.0031    -0.0008     1.5854     0.0000     0.0000     0.0000    14.4503    14.4503     0.0000     0.0000     0.0000   300.000
      4   -35.1380   -17.6205      1.017      3.000   9801.000      1.000    41.5367    -9.3283    18.3001     0.0409     0.0130    10.0000     5.0000     5.0000    10.0000    12.0000     8.0000     8.0000    12.0000    90.0031    -0.0008     1.5943     0.0000     0.0000     0.0000    14.4503    14.4503     0.0000     0.0000     0.0000   300.000
      5   -35.3384   -17.7208      1.006      2.000   9801.000      1.000    41.5367    -9.3283    18.3001     0.0409     0.0130    10.0000     5.0000     5.0000    10.0000    12.0000     8.0000     8.0000    12.0000    90.0031    -0.0008     1.6031     0.0000     0.0000     0.0000    14.4503    14.4503     0.0000     0.0000     0.0000   300.000
      6   -35.5415   -17.8205      1.005     10.000   9801.000      1.000    41.5367    -9.3283    18.3001     0.0409     0.0130    10.0000     5.0000     5.0000    10.0000    12.0000     8.0000     8.0000    12.0000    90.0031    -0.0008     1.6120     0.0000     0.0000     0.0000    14.4503    14.4503     0.0000     0.0000     0.0000   300.000
      7   -35.7422   -17.9203      1.018     44.000   9801.000      1.000    41.5367    -9.3283    18.3001     0.0409     0.0130    10.0000     5.0000     5.0000    10.0000    12.0000     8.0000     8.0000    12.0000    90.0030    -0.0008     1.6208     0.0000     0.0000     0.0000    14.4503    14.4503     0.0000     0.0000     0.0000   300.000
      8   -35.9453   -18.0204      1.023    164.000   9801.000      1.000    41.5367    -9.3283    18.3001     0.0409     0.0130    10.0000     5.0000     5.0000    10.0000    12.0000     8.0000     8.0000    12.0000    90.0030    -0.0008     1.6297     0.0000     0.0000     0.0000    14.4503    14.4503     0.0000     0.0000     0.0000   300.000
      9   -36.1447   -18.1202      1.019    297.000   9801.000      1.000    41.5367    -9.3283    18.3001     0.0409     0.0130    10.0000     5.0000     5.0000    10.0000    12.0000     8.0000     8.0000    12.0000    90.0030    -0.0008     1.6384     0.0000     0.0000     0.0000    14.4503    14.4503     0.0000     0.0000     0.0000   300.000
     10   -36.3388   -18.2200      1.026    411.000   9801.000      1.000    41.5367    -9.3283    18.3001     0.0409     0.0130    10.0000     5.0000     5.0000    10.0000    12.0000     8.0000     8.0000    12.0000    90.0030    -0.0008     1.6469     0.0000     0.0000     0.0000    14.4503    14.4503     0.0000     0.0000     0.0000   300.000
     11   -36.5382   -18.3202      1.022    417.000   9801.000      1.000    41.5367    -9.3283    18.3001     0.0409     0.0130    10.0000     5.0000     5.0000    10.0000    12.0000     8.0000     8.0000    12.0000    90.0030    -0.0008     1.6557     0.0000     0.0000     0.0000    14.4503    14.4503     0.0000     0.0000     0.0000   300.000
     12   -36.7401   -18.4202      1.007    329.000   9801.000      1.000    41.5367    -9.3283    18.3001     0.0409     0.0130    10.0000     5.0000     5.0000    10.0000    12.0000     8.0000     8.0000    12.0000    90.0030    -0.0008     1.6645     0.0000     0.0000     0.0000    14.4503    14.4503     0.0000     0.0000     0.0000   300.000
     13   -36.9374   -18.5209      1.016    165.000   9801.000      1.000    41.5367    -9.3283    18.3001     0.0409     0.0130    10.0000     5.0000     5.0000    10.0000    12.0000     8.0000     8.0000    12.0000    90.0030    -0.0008     1.6731     0.0000     0.0000     0.0000    14.4503    14.4503     0.0000     0.0000     0.0000   300.000
     14   -37.1385   -18.6206      1.019     57.000   9801.000      1.000    41.5367    -9.3283    18.3001     0.0409     0.0130    10.0000     5.0000     5.0000    10.0000    12.0000     8.0000     8.0000    12.0000    90.0030    -0.0008     1.6819     0.0000     0.0000     0.0000    14.4503    14.4503     0.0000     0.0000     0.0000   300.000
     15   -37.3416   -18.7206      1.018     18.000   9801.000      1.000    41.5367    -9.3283    18.3001     0.0409     0.0130    10.0000     5.0000     5.0000    10.0000    12.0000     8.0000     8.0000    12.0000    90.0030    -0.0008     1.6908     0.0000     0.0000     0.0000    14.4503    14.4503     0.0000     0.0000     0.0000   300.000
     16   -37.5424   -18.8205      1.014      7.000   9801.000      1.000    41.5367    -9.3283    18.3001     0.0409     0.0130    10.0000     5.0000     5.0000    10.0000    12.0000     8.0000     8.0000    12.0000    90.0030    -0.0008     1.6995     0.0000     0.0000     0.0000    14.4503    14.4503     0.0000     0.0000     0.0000   300.000
     17   -37.7440   -18.9205      1.019      3.000   9801.000      1.000    41.5367    -9.3283    18.3001     0.0409     0.0130    10.0000     5.0000     5.0000    10.0000    12.0000     8.0000     8.0000    12.0000    90.0030    -0.0008     1.7083     0.0000     0.0000     0.0000    14.4503    14.4503     0.0000     0.0000     0.0000   300.000
     18   -37.9413   -19.0203      1.019      2.000   9801.000      1.000    41.5367    -9.3283    18.3001     0.0409     0.0130    10.0000     5.0000     5.0000    10.0000    12.0000     8.0000     8.0000    12.0000    90.0030    -0.0008     1.7169     0.0000     0.0000     0.0000    14.4503    14.4503     0.0000     0.0000     0.0000   300.000
     19   -38.1387   -19.1203      1.046      5.000   9801.000      1.000    41.5367    -9.3283    18.3001     0.0409     0.0130    10.0000     5.0000     5.0000    10.0000    12.0000     8.0000     8.0000    12.0000    90.0029    -0.0008     1.7255     0.0000     0.0000     0.0000    14.4503    14.4503     0.0000     0.0000     0.0000   300.000
     20   -38.3392   -19.2198      1.027      4.000   9801.000      1.000    41.5367    -9.3283    18.3001     0.0409     0.0130    10.0000     5.0000     5.0000    10.0000    12.0000     8.0000     8.0000    12.0000    90.0029    -0.0008     1.7343     0.0000     0.0000     0.0000    14.4503    14.4503     0.0000     0.0000     0.0000   300.000
     21   -38.5399   -19.3202      1.028      2.000   9801.000      1.000    41.5367    -9.3283    18.3001     0.0409     0.0130    10.0000     5.0000     5.0000    10.0000    12.0000     8.0000     8.0000    12.0000    90.0030    -0.0008     1.7430     0.0000     0.0000     0.0000    14.4503    14.4503     0.0000     0.0000     0.0000   300.000
# Sum of Counts = 1947
# Center of Mass = -36.462996+/-1.168683
# Full Width Half-Maximum = 0.783323+/-0.592484
# 5:41:58 PM  4/15/2024   scan completed.
