# scan = 230
# date = 4/10/2024
# time = 4:32:04 PM
# proposal = 33477
# experiment = Commissioning and enabling the 4-circle capability at VERITAS
# experiment_number = 1012
# command = th2th 2 -2 0.2
# builtin_command = scan s2 @(s2)+2 @(s2)+-2 0.200000 s1 @(s1)+(2/2) @(s1)+(-2/2) 0.100000
# users = Feng Ye, Mike McDowell, Adam Aczel, Bing Li, Wei Tian, Bing Li
# local_contact = Wei Tian, Adam Aczel
# scan_title = Ruby-FC, look for [210]
# monochromator = PG002
# analyzer = Pg002
# sense = +-+
# collimation = 40-40-40-80
# samplename = La2Ni7, Al-doped CuFeO2
# sampletype = crystal
# samplemosaic = 30.000000
# latticeconstants = 13.706000,9.924000,7.024000,90.000000,90.000000,90.000000
# ubmatrix = 0.051591,0.071252,-0.000000,-0.000000,-0.000000,0.142369,0.051591,-0.071252,0.000000
# mode = 0
# plane_normal = 0.000000,0.000000,1.000000
# ubconf = UB10Apr2024_41643PM.ini
# preset_type = normal 
# preset_channel = time
# preset_value = 1.000000
# def_x = s2
# def_y = detector
# col_headers = 
#   Pt.         s2         s1       time   detector    monitor        mcu         m2        chi        phi        sgl        sgu   slitb_bt   slitb_lf   slitb_rt   slitb_tp   slita_bt   slita_lf   slita_rt   slita_tp         a1         a2          q          h          k          l         ei         ef          e
      1   -22.2544   -11.1786      1.000     38.000   9498.000      0.890    41.5367     0.3305     7.5602     0.0409     0.0130    20.0000    10.0000    10.0000    20.0000    15.0000    10.0000    10.0000    15.0000    20.7607    -0.0010     1.0193     1.5733     1.1376     0.0010    14.4503    14.4503     0.000
      2   -22.4615   -11.2781      1.000     50.000   9581.000      0.898    41.5367     0.3305     7.5602     0.0409     0.0130    20.0000    10.0000    10.0000    20.0000    15.0000    10.0000    10.0000    15.0000    20.7607    -0.0010     1.0286     1.5878     1.1480     0.0010    14.4503    14.4503     0.000
      3   -22.6627   -11.3781      1.000     49.000   9365.000      0.878    41.5367     0.3305     7.5602     0.0409     0.0130    20.0000    10.0000    10.0000    20.0000    15.0000    10.0000    10.0000    15.0000    20.7607    -0.0010     1.0377     1.6018     1.1582     0.0009    14.4503    14.4503     0.000
      4   -22.8630   -11.4786      1.000     39.000   9677.000      0.907    41.5367     0.3305     7.5602     0.0409     0.0130    20.0000    10.0000    10.0000    20.0000    15.0000    10.0000    10.0000    15.0000    20.7606    -0.0010     1.0468     1.6158     1.1683     0.0010    14.4503    14.4503     0.000
      5   -23.0626   -11.5790      1.000     43.000   9481.000      0.889    41.5367     0.3305     7.5602     0.0409     0.0130    20.0000    10.0000    10.0000    20.0000    15.0000    10.0000    10.0000    15.0000    20.7606    -0.0010     1.0558     1.6297     1.1783     0.0010    14.4503    14.4503     0.000
      6   -23.2590   -11.6788      1.000     63.000   9480.000      0.889    41.5367     0.3305     7.5602     0.0409     0.0130    20.0000    10.0000    10.0000    20.0000    15.0000    10.0000    10.0000    15.0000    20.7606    -0.0010     1.0647     1.6434     1.1882     0.0010    14.4503    14.4503     0.000
      7   -23.4565   -11.7791      1.000    232.000   9451.000      0.886    41.5367     0.3305     7.5602     0.0409     0.0130    20.0000    10.0000    10.0000    20.0000    15.0000    10.0000    10.0000    15.0000    20.7606    -0.0010     1.0736     1.6571     1.1982     0.0011    14.4503    14.4503     0.000
      8   -23.6593   -11.8789      1.000    941.000   9542.000      0.895    41.5367     0.3305     7.5602     0.0409     0.0130    20.0000    10.0000    10.0000    20.0000    15.0000    10.0000    10.0000    15.0000    20.7606    -0.0010     1.0827     1.6713     1.2084     0.0010    14.4503    14.4503     0.000
      9   -23.8561   -11.9786      1.000   1953.000   9486.000      0.889    41.5367     0.3305     7.5602     0.0409     0.0130    20.0000    10.0000    10.0000    20.0000    15.0000    10.0000    10.0000    15.0000    20.7605    -0.0010     1.0916     1.6850     1.2183     0.0011    14.4503    14.4503     0.000
     10   -24.0563   -12.0784      1.000   2030.000   9675.000      0.907    41.5367     0.3305     7.5602     0.0409     0.0130    20.0000    10.0000    10.0000    20.0000    15.0000    10.0000    10.0000    15.0000    20.7605    -0.0010     1.1006     1.6989     1.2284     0.0011    14.4503    14.4503     0.000
     11   -24.2623   -12.1783      1.000   1811.000   9526.000      0.893    41.5367     0.3305     7.5602     0.0409     0.0130    20.0000    10.0000    10.0000    20.0000    15.0000    10.0000    10.0000    15.0000    20.7605    -0.0010     1.1099     1.7132     1.2387     0.0010    14.4503    14.4503     0.000
     12   -24.4622   -12.2782      1.000   2032.000   9416.000      0.883    41.5367     0.3305     7.5602     0.0409     0.0130    20.0000    10.0000    10.0000    20.0000    15.0000    10.0000    10.0000    15.0000    20.7605    -0.0010     1.1189     1.7271     1.2488     0.0010    14.4503    14.4503     0.000
     13   -24.6626   -12.3782      1.000   1743.000   9434.000      0.884    41.5367     0.3305     7.5602     0.0409     0.0130    20.0000    10.0000    10.0000    20.0000    15.0000    10.0000    10.0000    15.0000    20.7605    -0.0010     1.1279     1.7411     1.2588     0.0010    14.4503    14.4503     0.000
     14   -24.8609   -12.4786      1.000    865.000   9572.000      0.897    41.5367     0.3305     7.5602     0.0409     0.0130    20.0000    10.0000    10.0000    20.0000    15.0000    10.0000    10.0000    15.0000    20.7605    -0.0010     1.1369     1.7548     1.2688     0.0011    14.4503    14.4503     0.000
     15   -25.0578   -12.5789      1.000    265.000   9585.000      0.899    41.5367     0.3305     7.5602     0.0409     0.0130    20.0000    10.0000    10.0000    20.0000    15.0000    10.0000    10.0000    15.0000    20.7604    -0.0010     1.1457     1.7685     1.2787     0.0011    14.4503    14.4503     0.000
     16   -25.2594   -12.6787      1.000     88.000   9560.000      0.896    41.5367     0.3305     7.5602     0.0409     0.0130    20.0000    10.0000    10.0000    20.0000    15.0000    10.0000    10.0000    15.0000    20.7605    -0.0010     1.1548     1.7825     1.2888     0.0011    14.4503    14.4503     0.000
     17   -25.4586   -12.7790      1.000     46.000   9592.000      0.899    41.5367     0.3305     7.5602     0.0409     0.0130    20.0000    10.0000    10.0000    20.0000    15.0000    10.0000    10.0000    15.0000    20.7604    -0.0010     1.1638     1.7963     1.2988     0.0011    14.4503    14.4503     0.000
     18   -25.6591   -12.8789      1.000     46.000   9550.000      0.895    41.5367     0.3305     7.5602     0.0409     0.0130    20.0000    10.0000    10.0000    20.0000    15.0000    10.0000    10.0000    15.0000    20.7605    -0.0010     1.1728     1.8103     1.3089     0.0011    14.4503    14.4503     0.000
     19   -25.8591   -12.9787      1.000     47.000   9475.000      0.888    41.5367     0.3305     7.5602     0.0409     0.0130    20.0000    10.0000    10.0000    20.0000    15.0000    10.0000    10.0000    15.0000    20.7604    -0.0010     1.1818     1.8241     1.3189     0.0011    14.4503    14.4503     0.000
     20   -26.0609   -13.0785      1.000     37.000   9657.000      0.905    41.5367     0.3305     7.5602     0.0409     0.0130    20.0000    10.0000    10.0000    20.0000    15.0000    10.0000    10.0000    15.0000    20.7604    -0.0010     1.1908     1.8381     1.3290     0.0011    14.4503    14.4503     0.000
     21   -26.2619   -13.1781      1.000     43.000   9631.000      0.903    41.5367     0.3305     7.5602     0.0409     0.0130    20.0000    10.0000    10.0000    20.0000    15.0000    10.0000    10.0000    15.0000    20.7604    -0.0010     1.1998     1.8520     1.3391     0.0011    14.4503    14.4503     0.000
# Sum of Counts = 12461
# Center of Mass = -24.253246+/-0.307294
# Full Width Half-Maximum = 0.987074+/-0.148026
# 4:33:08 PM  4/10/2024   scan completed.
