# scan = 38
# date = 9/21/2024
# time = 5:25:22 PM
# proposal = 34735
# experiment = Magnons and paramagnon coupling in MnTe
# experiment_number = 816
# command = scan h 1.0 k 0.0 l 1.0 e 30 0.5 0.2 ef 14.7 preset mcu 60
# builtin_command = scan h 1.0 k 0.0 l 1.0 e 30 0.5 0.2 ef 14.7 preset mcu 60
# users = Benjamin Frandsen, Songxue Chi, George Yumnam, Huibo Cao, Michael Manley, Raphael Hermann, Eleanor Clements
# local_contact = Eleanor Clements
# scan_title = H0L scans along (101) to (1.5, 0, 1.5) at H/L = 1.0, mcu = 60, E = 30 to 0.5 mev
# monochromator = PG002
# analyzer = Pg002
# sense = -+-
# collimation = 48-40-40-120
# samplename = MnTe
# sampletype = crystal
# samplemosaic = 30.000000
# latticeconstants = 4.134597,4.134597,6.679746,90.000000,90.000000,120.000000
# ubmatrix = -0.273127,-0.149222,-0.030247,-0.056745,-0.024153,0.146560,-0.013326,0.234830,-0.004146
# mode = 0
# plane_normal = -0.052339,0.017444,0.998477
# ubconf = UB21Sep2024_13243PM.ini
# preset_type = normal 
# preset_channel = mcu
# preset_value = 60.000000
# def_x = e
# def_y = detector
# col_headers = 
#   Pt.          h          k          l          e         ef       time   detector    monitor        mcu focal_length         m1         m2   mcrystal       marc     mtrans     mfocus       temp     temp_2         s1         s2        sgl        sgu        bbb        bbl        bbr        bbt        bab        bal        bar        bat        stl        stu         a1         a2          q         ei        vti     sample
      1     1.0001    -0.0000     0.9998    30.0019    14.7000     43.406    524.000 150721.000     60.000    38.3059   -20.0773   -23.2617   120.0962    -0.1480    -3.0001   -62.2448   250.0000   300.0000   102.2009     3.2235     3.0010     1.0017    14.0000    10.0000    17.0000    10.0000    19.0000    20.0000     8.0000    12.0000    -0.0005     0.0005   159.4167   -41.1662     1.9910    44.7019   249.9320     0.000
      2     1.0000    -0.0000     1.0000    29.8008    14.7000     43.186     80.000 150721.000     60.000    38.3918   -20.0773   -23.3150   120.0962    -0.1480    -3.0001   -62.0920   250.0000   300.0000   100.3295     4.6245     3.0010     1.0017    14.0000    10.0000    17.0000    10.0000    19.0000    20.0000     8.0000    12.0000    -0.0005     0.0005   159.4167   -41.1662     1.9910    44.5008   250.0870     0.000
      3     1.0000    -0.0000     1.0000    29.5994    14.7000     42.899     10.000 150721.000     60.000    38.4784   -20.0773   -23.3686   120.0962    -0.1480    -3.0001   -61.9390   250.0000   300.0000    98.8994     5.6897     3.0010     1.0017    14.0000    10.0000    17.0000    10.0000    19.0000    20.0000     8.0000    12.0000    -0.0005     0.0005   159.4167   -41.1662     1.9909    44.2995   250.1030     0.000
      4     1.0000    -0.0000     1.0001    29.3995    14.7000     42.566     16.000 150721.000     60.000    38.5656   -20.0773   -23.4223   120.0962    -0.1480    -3.0001   -61.7856   250.0000   300.0000    97.6941     6.5877     3.0010     1.0017    14.0000    10.0000    17.0000    10.0000    19.0000    20.0000     8.0000    12.0000    -0.0005     0.0005   159.4167   -41.1662     1.9910    44.0995   250.0180     0.000
      5     1.0000    -0.0000     1.0001    29.1998    14.7000     42.354     18.000 150721.000     60.000    38.6533   -20.0773   -23.4762   120.0962    -0.1480    -3.0001   -61.6320   250.0000   300.0000    96.6305     7.3785     3.0010     1.0017    14.0000    10.0000    17.0000    10.0000    19.0000    20.0000     8.0000    12.0000    -0.0005     0.0005   159.4167   -41.1662     1.9910    43.8998   250.0020     0.000
      6     1.0000    -0.0000     1.0000    29.0003    14.7000     41.942      7.000 150721.000     60.000    38.7417   -20.0773   -23.5305   120.0962    -0.1480    -3.0001   -61.4781   250.0000   300.0000    95.6675     8.0909     3.0010     1.0017    14.0000    10.0000    17.0000    10.0000    19.0000    20.0000     8.0000    12.0000    -0.0005     0.0005   159.4167   -41.1662     1.9910    43.7003   250.0510     0.000
      7     1.0000    -0.0000     1.0001    28.8002    14.7000     41.947      8.000 150721.000     60.000    38.8306   -20.0773   -23.5854   120.0962    -0.1480    -3.0001   -61.3240   250.0000   300.0000    94.7799     8.7509     3.0010     1.0017    14.0000    10.0000    17.0000    10.0000    19.0000    20.0000     8.0000    12.0000    -0.0005     0.0005   159.4167   -41.1662     1.9910    43.5002   250.0140     0.000
      8     1.0000    -0.0000     1.0001    28.6006    14.7000     42.127      6.000 150721.000     60.000    38.9202   -20.0773   -23.6404   120.0962    -0.1480    -3.0001   -61.1695   250.0000   300.0000    93.9513     9.3643     3.0010     1.0017    14.0000    10.0000    17.0000    10.0000    19.0000    20.0000     8.0000    12.0000    -0.0005     0.0005   159.4167   -41.1662     1.9910    43.3006   250.0080     0.000
      9     1.0000    -0.0000     1.0000    28.3995    14.7000     41.832     10.000 150721.000     60.000    39.0104   -20.0773   -23.6963   120.0962    -0.1480    -3.0001   -61.0148   250.0000   300.0000    93.1714     9.9389     3.0010     1.0017    14.0000    10.0000    17.0000    10.0000    19.0000    20.0000     8.0000    12.0000    -0.0005     0.0005   159.4167   -41.1662     1.9909    43.0995   250.0640     0.000
     10     1.0000    -0.0000     0.9999    28.1994    14.7000     41.736      6.000 150721.000     60.000    39.1012   -20.0773   -23.7523   120.0962    -0.1480    -3.0001   -60.8597   250.0000   300.0000    92.4319    10.4832     3.0010     1.0017    14.0000    10.0000    17.0000    10.0000    19.0000    20.0000     8.0000    12.0000    -0.0005     0.0005   159.4167   -41.1662     1.9909    42.8994   249.9930     0.000
     11     1.0000    -0.0000     1.0001    28.0007    14.7000     41.369     17.000 150721.000     60.000    39.1927   -20.0773   -23.8083   120.0962    -0.1480    -3.0001   -60.7044   250.0000   300.0000    91.7261    11.0052     3.0010     1.0017    14.0000    10.0000    17.0000    10.0000    19.0000    20.0000     8.0000    12.0000    -0.0005     0.0005   159.4167   -41.1662     1.9910    42.7008   250.0470     0.000
     12     1.0000    -0.0000     1.0000    27.7997    14.7000     41.381     13.000 150721.000     60.000    39.2848   -20.0773   -23.8654   120.0962    -0.1480    -3.0001   -60.5487   250.0000   300.0000    91.0504    11.5019     3.0010     1.0017    14.0000    10.0000    17.0000    10.0000    19.0000    20.0000     8.0000    12.0000    -0.0005     0.0005   159.4167   -41.1662     1.9910    42.4998   250.0540     0.000
     13     1.0000    -0.0000     1.0001    27.5995    14.7000     40.916     11.000 150721.000     60.000    39.3775   -20.0773   -23.9227   120.0962    -0.1480    -3.0001   -60.3928   250.0000   300.0000    90.4000    11.9808     3.0010     1.0017    14.0000    10.0000    17.0000    10.0000    19.0000    20.0000     8.0000    12.0000    -0.0005     0.0005   159.4167   -41.1662     1.9910    42.2995   250.0290     0.000
     14     1.0000    -0.0000     1.0000    27.4003    14.7000     40.984     10.000 150721.000     60.000    39.4710   -20.0773   -23.9800   120.0962    -0.1480    -3.0001   -60.2366   250.0000   300.0000    89.7728    12.4399     3.0010     1.0017    14.0000    10.0000    17.0000    10.0000    19.0000    20.0000     8.0000    12.0000    -0.0005     0.0005   159.4167   -41.1662     1.9910    42.1003   250.0650     0.000
     15     1.0000    -0.0000     1.0000    27.1998    14.7000     40.596      6.000 150721.000     60.000    39.5651   -20.0773   -24.0382   120.0962    -0.1480    -3.0001   -60.0800   250.0000   300.0000    89.1650    12.8836     3.0010     1.0017    14.0000    10.0000    17.0000    10.0000    19.0000    20.0000     8.0000    12.0000    -0.0005     0.0005   159.4167   -41.1662     1.9909    41.8998   250.0230     0.000
     16     1.0000    -0.0000     1.0001    27.0008    14.7000     40.165     13.000 150721.000     60.000    39.6598   -20.0773   -24.0963   120.0962    -0.1480    -3.0001   -59.9232   250.0000   300.0000    88.5764    13.3159     3.0010     1.0017    14.0000    10.0000    17.0000    10.0000    19.0000    20.0000     8.0000    12.0000    -0.0005     0.0005   159.4167   -41.1662     1.9910    41.7008   250.0880     0.000
     17     1.0000    -0.0000     1.0000    26.7998    14.7000     39.848     15.000 150721.000     60.000    39.7553   -20.0773   -24.1555   120.0962    -0.1480    -3.0001   -59.7660   250.0000   300.0000    88.0039    13.7338     3.0010     1.0017    14.0000    10.0000    17.0000    10.0000    19.0000    20.0000     8.0000    12.0000    -0.0005     0.0005   159.4167   -41.1662     1.9910    41.4999   250.0680     0.000
     18     1.0000    -0.0000     1.0000    26.6000    14.7000     39.404     10.000 150721.000     60.000    39.8514   -20.0773   -24.2147   120.0962    -0.1480    -3.0001   -59.6086   250.0000   300.0000    87.4456    14.1409     3.0010     1.0017    14.0000    10.0000    17.0000    10.0000    19.0000    20.0000     8.0000    12.0000    -0.0005     0.0005   159.4167   -41.1662     1.9910    41.3000   250.0540     0.000
     19     1.0000    -0.0000     1.0001    26.3994    14.7000     39.246     12.000 150721.000     60.000    39.9483   -20.0773   -24.2747   120.0962    -0.1480    -3.0001   -59.4508   250.0000   300.0000    86.9019    14.5369     3.0010     1.0017    14.0000    10.0000    17.0000    10.0000    19.0000    20.0000     8.0000    12.0000    -0.0005     0.0005   159.4167   -41.1662     1.9910    41.0994   249.8530     0.000
     20     1.0000    -0.0000     1.0001    26.2001    14.7000     38.718     18.000 150721.000     60.000    40.0458   -20.0773   -24.3346   120.0962    -0.1480    -3.0001   -59.2927   250.0000   300.0000    86.3704    14.9235     3.0010     1.0017    14.0000    10.0000    17.0000    10.0000    19.0000    20.0000     8.0000    12.0000    -0.0005     0.0005   159.4167   -41.1662     1.9910    40.9001   249.8740     0.000
     21     1.0000    -0.0000     1.0000    26.0000    14.7000     38.622      4.000 150721.000     60.000    40.1441   -20.0773   -24.3953   120.0962    -0.1480    -3.0001   -59.1343   250.0000   300.0000    85.8501    15.2999     3.0010     1.0017    14.0000    10.0000    17.0000    10.0000    19.0000    20.0000     8.0000    12.0000    -0.0005     0.0005   159.4167   -41.1662     1.9910    40.7001   250.0980     0.000
     22     1.0000    -0.0000     0.9999    25.8005    14.7000     38.225     19.000 150721.000     60.000    40.2431   -20.0773   -24.4562   120.0962    -0.1480    -3.0001   -58.9756   250.0000   300.0000    85.3407    15.6670     3.0010     1.0017    14.0000    10.0000    17.0000    10.0000    19.0000    20.0000     8.0000    12.0000    -0.0005     0.0005   159.4167   -41.1662     1.9910    40.5005   250.0230     0.000
     23     1.0000    -0.0000     1.0000    25.6003    14.7000     38.134     17.000 150721.000     60.000    40.3428   -20.0773   -24.5179   120.0962    -0.1480    -3.0001   -58.8166   250.0000   300.0000    84.8411    16.0290     3.0010     1.0017    14.0000    10.0000    17.0000    10.0000    19.0000    20.0000     8.0000    12.0000    -0.0005     0.0005   159.4167   -41.1662     1.9910    40.3003   250.0180     0.000
     24     1.0000    -0.0000     1.0001    25.3997    14.7000     37.818     14.000 150721.000     60.000    40.4433   -20.0773   -24.5801   120.0962    -0.1480    -3.0001   -58.6572   250.0000   300.0000    84.3509    16.3863     3.0010     1.0017    14.0000    10.0000    17.0000    10.0000    19.0000    20.0000     8.0000    12.0000    -0.0005     0.0005   159.4167   -41.1662     1.9910    40.0997   250.0650     0.000
     25     1.0000    -0.0000     1.0000    25.1996    14.7000     37.785     12.000 150721.000     60.000    40.5446   -20.0773   -24.6426   120.0962    -0.1480    -3.0001   -58.4975   250.0000   300.0000    83.8694    16.7318     3.0010     1.0017    14.0000    10.0000    17.0000    10.0000    19.0000    20.0000     8.0000    12.0000    -0.0005     0.0005   159.4167   -41.1662     1.9910    39.8997   250.0480     0.000
     26     1.0000    -0.0000     1.0000    25.0005    14.7000     37.512     10.000 150721.000     60.000    40.6465   -20.0773   -24.7053   120.0962    -0.1480    -3.0001   -58.3375   250.0000   300.0000    83.3953    17.0724     3.0010     1.0017    14.0000    10.0000    17.0000    10.0000    19.0000    20.0000     8.0000    12.0000    -0.0005     0.0005   159.4167   -41.1662     1.9910    39.7005   249.8400     0.000
     27     1.0000    -0.0000     1.0000    24.7996    14.7000     37.667     15.000 150721.000     60.000    40.7493   -20.0773   -24.7690   120.0962    -0.1480    -3.0001   -58.1772   250.0000   300.0000    82.9291    17.4084     3.0010     1.0017    14.0000    10.0000    17.0000    10.0000    19.0000    20.0000     8.0000    12.0000    -0.0005     0.0005   159.4167   -41.1662     1.9910    39.4996   250.0270     0.000
     28     1.0000    -0.0000     1.0001    24.6000    14.7000     37.471     12.000 150721.000     60.000    40.8529   -20.0773   -24.8328   120.0962    -0.1480    -3.0001   -58.0165   250.0000   300.0000    82.4698    17.7385     3.0010     1.0017    14.0000    10.0000    17.0000    10.0000    19.0000    20.0000     8.0000    12.0000    -0.0005     0.0005   159.4167   -41.1662     1.9910    39.3000   250.0240     0.000
     29     1.0000    -0.0000     1.0000    24.4000    14.7000     37.563     21.000 150721.000     60.000    40.9572   -20.0773   -24.8973   120.0962    -0.1480    -3.0001   -57.8555   250.0000   300.0000    82.0173    18.0601     3.0010     1.0017    14.0000    10.0000    17.0000    10.0000    19.0000    20.0000     8.0000    12.0000    -0.0005     0.0005   159.4167   -41.1662     1.9909    39.1000   250.0150     0.000
     30     1.0000    -0.0000     1.0000    24.1998    14.7000     37.831     20.000 150721.000     60.000    41.0624   -20.0773   -24.9623   120.0962    -0.1480    -3.0001   -57.6941   250.0000   300.0000    81.5709    18.3808     3.0010     1.0017    14.0000    10.0000    17.0000    10.0000    19.0000    20.0000     8.0000    12.0000    -0.0005     0.0005   159.4167   -41.1662     1.9910    38.8998   250.0660     0.000
     31     1.0000    -0.0000     1.0000    24.0001    14.7000     37.986     20.000 150721.000     60.000    41.1683   -20.0773   -25.0276   120.0962    -0.1480    -3.0001   -57.5324   250.0000   300.0000    81.1306    18.6936     3.0010     1.0017    14.0000    10.0000    17.0000    10.0000    19.0000    20.0000     8.0000    12.0000    -0.0005     0.0005   159.4167   -41.1662     1.9910    38.7001   250.0290     0.000
     32     1.0000    -0.0000     1.0001    23.7996    14.7000     38.041     11.000 150721.000     60.000    41.2751   -20.0773   -25.0938   120.0962    -0.1480    -3.0001   -57.3704   250.0000   300.0000    80.6959    19.0060     3.0010     1.0017    14.0000    10.0000    17.0000    10.0000    19.0000    20.0000     8.0000    12.0000    -0.0005     0.0005   159.4167   -41.1662     1.9910    38.4997   249.8560     0.000
     33     1.0000    -0.0000     1.0000    23.5999    14.7000     38.369     16.000 150721.000     60.000    41.3828   -20.0773   -25.1602   120.0962    -0.1480    -3.0001   -57.2080   250.0000   300.0000    80.2660    19.3092     3.0010     1.0017    14.0000    10.0000    17.0000    10.0000    19.0000    20.0000     8.0000    12.0000    -0.0005     0.0005   159.4167   -41.1662     1.9910    38.2999   250.0080     0.000
     34     1.0000    -0.0000     1.0001    23.4004    14.7000     38.482     15.000 150721.000     60.000    41.4912   -20.0773   -25.2271   120.0962    -0.1480    -3.0001   -57.0453   250.0000   300.0000    79.8420    19.6119     3.0010     1.0017    14.0000    10.0000    17.0000    10.0000    19.0000    20.0000     8.0000    12.0000    -0.0005     0.0005   159.4167   -41.1662     1.9910    38.1004   250.0520     0.000
     35     1.0000    -0.0000     1.0000    23.1999    14.7000     39.055     18.000 150721.000     60.000    41.6006   -20.0773   -25.2948   120.0962    -0.1480    -3.0001   -56.8822   250.0000   300.0000    79.4220    19.9082     3.0010     1.0017    14.0000    10.0000    17.0000    10.0000    19.0000    20.0000     8.0000    12.0000    -0.0005     0.0005   159.4167   -41.1662     1.9910    37.8999   249.9910     0.000
     36     1.0000    -0.0000     1.0001    22.9999    14.7000     39.345     11.000 150721.000     60.000    41.7108   -20.0773   -25.3629   120.0962    -0.1480    -3.0001   -56.7188   250.0000   300.0000    79.0067    20.2033     3.0010     1.0017    14.0000    10.0000    17.0000    10.0000    19.0000    20.0000     8.0000    12.0000    -0.0005     0.0005   159.4167   -41.1662     1.9910    37.6999   250.0530     0.000
     37     1.0000    -0.0000     1.0000    22.7999    14.7000     39.750     17.000 150721.000     60.000    41.8218   -20.0773   -25.4316   120.0962    -0.1480    -3.0001   -56.5550   250.0000   300.0000    78.5959    20.4914     3.0010     1.0017    14.0000    10.0000    17.0000    10.0000    19.0000    20.0000     8.0000    12.0000    -0.0005     0.0005   159.4167   -41.1662     1.9910    37.4999   250.0120     0.000
     38     1.0001    -0.0000     1.0001    22.6011    14.7000     40.021     14.000 150721.000     60.000    41.9338   -20.0773   -25.5004   120.0962    -0.1480    -3.0001   -56.3908   250.0000   300.0000    78.1893    20.7808     3.0010     1.0017    14.0000    10.0000    17.0000    10.0000    19.0000    20.0000     8.0000    12.0000    -0.0005     0.0005   159.4167   -41.1662     1.9911    37.3012   250.0960     0.000
     39     1.0000    -0.0000     0.9999    22.3998    14.7000     40.294     14.000 150721.000     60.000    42.0467   -20.0773   -25.5707   120.0962    -0.1480    -3.0001   -56.2263   250.0000   300.0000    77.7859    21.0601     3.0010     1.0017    14.0000    10.0000    17.0000    10.0000    19.0000    20.0000     8.0000    12.0000    -0.0005     0.0005   159.4167   -41.1662     1.9909    37.0998   250.0040     0.000
     40     1.0000    -0.0000     1.0000    22.1996    14.7000     40.858     17.000 150721.000     60.000    42.1605   -20.0773   -25.6411   120.0962    -0.1480    -3.0001   -56.0614   250.0000   300.0000    77.3870    21.3422     3.0010     1.0017    14.0000    10.0000    17.0000    10.0000    19.0000    20.0000     8.0000    12.0000    -0.0005     0.0005   159.4167   -41.1662     1.9910    36.8996   249.9760     0.000
     41     1.0000    -0.0000     1.0000    21.9995    14.7000     40.926      6.000 150721.000     60.000    42.2752   -20.0773   -25.7121   120.0962    -0.1480    -3.0001   -55.8961   250.0000   300.0000    76.9914    21.6192     3.0010     1.0017    14.0000    10.0000    17.0000    10.0000    19.0000    20.0000     8.0000    12.0000    -0.0005     0.0005   159.4167   -41.1662     1.9910    36.6996   249.8550     0.000
     42     1.0000    -0.0000     1.0000    21.7998    14.7000     41.103     19.000 150721.000     60.000    42.3909   -20.0773   -25.7836   120.0962    -0.1480    -3.0001   -55.7305   250.0000   300.0000    76.5991    21.8922     3.0010     1.0017    14.0000    10.0000    17.0000    10.0000    19.0000    20.0000     8.0000    12.0000    -0.0005     0.0005   159.4167   -41.1662     1.9909    36.4998   249.9290     0.000
     43     1.0000    -0.0000     1.0000    21.6002    14.7000     41.365     11.000 150721.000     60.000    42.5075   -20.0773   -25.8556   120.0962    -0.1480    -3.0001   -55.5645   250.0000   300.0000    76.2099    22.1649     3.0010     1.0017    14.0000    10.0000    17.0000    10.0000    19.0000    20.0000     8.0000    12.0000    -0.0005     0.0005   159.4167   -41.1662     1.9910    36.3002   249.8570     0.000
     44     1.0000    -0.0000     0.9999    21.4000    14.7000     41.360     12.000 150721.000     60.000    42.6251   -20.0773   -25.9284   120.0962    -0.1480    -3.0001   -55.3981   250.0000   300.0000    75.8240    22.4314     3.0010     1.0017    14.0000    10.0000    17.0000    10.0000    19.0000    20.0000     8.0000    12.0000    -0.0005     0.0005   159.4167   -41.1662     1.9909    36.1000   249.8980     0.000
     45     1.0000    -0.0000     1.0000    21.1999    14.7000     41.331     14.000 150721.000     60.000    42.7436   -20.0773   -26.0019   120.0962    -0.1480    -3.0001   -55.2313   250.0000   300.0000    75.4408    22.6985     3.0010     1.0017    14.0000    10.0000    17.0000    10.0000    19.0000    20.0000     8.0000    12.0000    -0.0005     0.0005   159.4167   -41.1662     1.9910    35.8999   249.8760     0.000
     46     1.0000    -0.0000     1.0001    21.0004    14.7000     41.489     11.000 150721.000     60.000    42.8632   -20.0773   -26.0757   120.0962    -0.1480    -3.0001   -55.0642   250.0000   300.0000    75.0609    22.9637     3.0010     1.0017    14.0000    10.0000    17.0000    10.0000    19.0000    20.0000     8.0000    12.0000    -0.0005     0.0005   159.4167   -41.1662     1.9910    35.7004   249.9240     0.000
     47     1.0000    -0.0000     1.0001    20.7991    14.7000     41.248     11.000 150721.000     60.000    42.9838   -20.0773   -26.1508   120.0962    -0.1480    -3.0001   -54.8966   250.0000   300.0000    74.6836    23.2253     3.0010     1.0017    14.0000    10.0000    17.0000    10.0000    19.0000    20.0000     8.0000    12.0000    -0.0005     0.0005   159.4167   -41.1662     1.9910    35.4991   249.8810     0.000
     48     1.0000    -0.0000     1.0000    20.6004    14.7000     41.508     11.000 150721.000     60.000    43.1054   -20.0773   -26.2256   120.0962    -0.1480    -3.0001   -54.7287   250.0000   300.0000    74.3085    23.4816     3.0010     1.0017    14.0000    10.0000    17.0000    10.0000    19.0000    20.0000     8.0000    12.0000    -0.0005     0.0005   159.4167   -41.1662     1.9910    35.3004   249.8720     0.000
     49     1.0000    -0.0000     1.0000    20.4000    14.7000     41.489     14.000 150721.000     60.000    43.2280   -20.0773   -26.3017   120.0962    -0.1480    -3.0001   -54.5603   250.0000   300.0000    73.9360    23.7389     3.0010     1.0017    14.0000    10.0000    17.0000    10.0000    19.0000    20.0000     8.0000    12.0000    -0.0005     0.0005   159.4167   -41.1662     1.9910    35.1000   249.9680     0.000
     50     1.0000    -0.0000     1.0000    20.2001    14.7000     41.748     12.000 150721.000     60.000    43.3517   -20.0773   -26.3783   120.0962    -0.1480    -3.0001   -54.3916   250.0000   300.0000    73.5659    23.9942     3.0010     1.0017    14.0000    10.0000    17.0000    10.0000    19.0000    20.0000     8.0000    12.0000    -0.0005     0.0005   159.4167   -41.1662     1.9910    34.9001   249.9520     0.000
     51     1.0000    -0.0000     1.0000    19.9999    14.7000     41.915     14.000 150721.000     60.000    43.4765   -20.0773   -26.4556   120.0962    -0.1480    -3.0001   -54.2224   250.0000   300.0000    73.1988    24.2442     3.0010     1.0017    14.0000    10.0000    17.0000    10.0000    19.0000    20.0000     8.0000    12.0000    -0.0005     0.0005   159.4167   -41.1662     1.9909    34.7000   250.0300     0.000
     52     1.0000    -0.0000     1.0000    19.7999    14.7000     42.166      9.000 150721.000     60.000    43.6023   -20.0773   -26.5336   120.0962    -0.1480    -3.0001   -54.0529   250.0000   300.0000    72.8329    24.4954     3.0010     1.0017    14.0000    10.0000    17.0000    10.0000    19.0000    20.0000     8.0000    12.0000    -0.0005     0.0005   159.4167   -41.1662     1.9910    34.4999   250.0320     0.000
     53     1.0000    -0.0000     1.0000    19.5998    14.7000     42.174     17.000 150721.000     60.000    43.7292   -20.0773   -26.6123   120.0962    -0.1480    -3.0001   -53.8830   250.0000   300.0000    72.4694    24.7444     3.0010     1.0017    14.0000    10.0000    17.0000    10.0000    19.0000    20.0000     8.0000    12.0000    -0.0005     0.0005   159.4167   -41.1662     1.9910    34.2998   250.0450     0.000
     54     1.0001    -0.0000     1.0002    19.4001    14.7000     42.506     15.000 150721.000     60.000    43.8573   -20.0773   -26.6916   120.0962    -0.1480    -3.0001   -53.7126   250.0000   300.0000    72.1079    24.9932     3.0010     1.0017    14.0000    10.0000    17.0000    10.0000    19.0000    20.0000     8.0000    12.0000    -0.0005     0.0005   159.4167   -41.1662     1.9911    34.1001   250.0000     0.000
     55     1.0000    -0.0000     1.0000    19.1999    14.7000     42.942      7.000 150721.000     60.000    43.9865   -20.0773   -26.7717   120.0962    -0.1480    -3.0001   -53.5418   250.0000   300.0000    71.7482    25.2330     3.0010     1.0017    14.0000    10.0000    17.0000    10.0000    19.0000    20.0000     8.0000    12.0000    -0.0005     0.0005   159.4167   -41.1662     1.9909    33.8999   249.9640     0.000
     56     1.0000    -0.0000     1.0000    19.0006    14.7000     43.179     13.000 150721.000     60.000    44.1168   -20.0773   -26.8523   120.0962    -0.1480    -3.0001   -53.3706   250.0000   300.0000    71.3905    25.4759     3.0010     1.0017    14.0000    10.0000    17.0000    10.0000    19.0000    20.0000     8.0000    12.0000    -0.0005     0.0005   159.4167   -41.1662     1.9910    33.7006   249.9010     0.000
     57     1.0000    -0.0000     1.0000    18.7993    14.7000     43.446     22.000 150721.000     60.000    44.2483   -20.0773   -26.9343   120.0962    -0.1480    -3.0001   -53.1990   250.0000   300.0000    71.0349    25.7180     3.0010     1.0017    14.0000    10.0000    17.0000    10.0000    19.0000    20.0000     8.0000    12.0000    -0.0005     0.0005   159.4167   -41.1662     1.9910    33.4993   249.9190     0.000
     58     1.0000    -0.0000     1.0001    18.5999    14.7000     43.575     16.000 150721.000     60.000    44.3810   -20.0773   -27.0164   120.0962    -0.1480    -3.0001   -53.0269   250.0000   300.0000    70.6801    25.9580     3.0010     1.0017    14.0000    10.0000    17.0000    10.0000    19.0000    20.0000     8.0000    12.0000    -0.0005     0.0005   159.4167   -41.1662     1.9910    33.2999   249.8660     0.000
     59     1.0001    -0.0000     1.0001    18.4008    14.7000     43.821      6.000 150721.000     60.000    44.5149   -20.0773   -27.0991   120.0962    -0.1480    -3.0001   -52.8544   250.0000   300.0000    70.3279    26.1954     3.0010     1.0017    14.0000    10.0000    17.0000    10.0000    19.0000    20.0000     8.0000    12.0000    -0.0005     0.0005   159.4167   -41.1662     1.9911    33.1008   249.8660     0.000
     60     1.0000    -0.0000     1.0000    18.1994    14.7000     44.121     10.000 150721.000     60.000    44.6500   -20.0773   -27.1835   120.0962    -0.1480    -3.0001   -52.6815   250.0000   300.0000    69.9765    26.4292     3.0010     1.0017    14.0000    10.0000    17.0000    10.0000    19.0000    20.0000     8.0000    12.0000    -0.0005     0.0005   159.4167   -41.1662     1.9909    32.8994   250.0480     0.000
     61     1.0000    -0.0000     1.0000    17.9999    14.7000     44.329     11.000 150721.000     60.000    44.7863   -20.0773   -27.2678   120.0962    -0.1480    -3.0001   -52.5081   250.0000   300.0000    69.6269    26.6639     3.0010     1.0017    14.0000    10.0000    17.0000    10.0000    19.0000    20.0000     8.0000    12.0000    -0.0005     0.0005   159.4167   -41.1662     1.9910    32.7000   250.0960     0.000
     62     1.0000    -0.0000     1.0000    17.8003    14.7000     44.278     11.000 150721.000     60.000    44.9239   -20.0773   -27.3531   120.0962    -0.1480    -3.0001   -52.3343   250.0000   300.0000    69.2789    26.8962     3.0010     1.0017    14.0000    10.0000    17.0000    10.0000    19.0000    20.0000     8.0000    12.0000    -0.0005     0.0005   159.4167   -41.1662     1.9910    32.5003   250.0600     0.000
     63     1.0000    -0.0000     1.0000    17.5999    14.7000     44.677     14.000 150721.000     60.000    45.0627   -20.0773   -27.4395   120.0962    -0.1480    -3.0001   -52.1600   250.0000   300.0000    68.9316    27.1287     3.0010     1.0017    14.0000    10.0000    17.0000    10.0000    19.0000    20.0000     8.0000    12.0000    -0.0005     0.0005   159.4167   -41.1662     1.9910    32.2999   250.0060     0.000
     64     1.0000    -0.0000     1.0000    17.3998    14.7000     45.151     13.000 150721.000     60.000    45.2029   -20.0773   -27.5265   120.0962    -0.1480    -3.0001   -51.9853   250.0000   300.0000    68.5861    27.3582     3.0010     1.0017    14.0000    10.0000    17.0000    10.0000    19.0000    20.0000     8.0000    12.0000    -0.0005     0.0005   159.4167   -41.1662     1.9910    32.0998   250.0000     0.000
     65     1.0000    -0.0000     1.0000    17.2006    14.7000     45.261     12.000 150721.000     60.000    45.3444   -20.0773   -27.6140   120.0962    -0.1480    -3.0001   -51.8102   250.0000   300.0000    68.2420    27.5863     3.0010     1.0017    14.0000    10.0000    17.0000    10.0000    19.0000    20.0000     8.0000    12.0000    -0.0005     0.0005   159.4167   -41.1662     1.9910    31.9006   250.0590     0.000
     66     1.0000    -0.0000     1.0001    16.9999    14.7000     45.300     14.000 150721.000     60.000    45.4872   -20.0773   -27.7030   120.0962    -0.1480    -3.0001   -51.6345   250.0000   300.0000    67.8989    27.8135     3.0010     1.0017    14.0000    10.0000    17.0000    10.0000    19.0000    20.0000     8.0000    12.0000    -0.0005     0.0005   159.4167   -41.1662     1.9910    31.6999   250.0650     0.000
     67     1.0000    -0.0000     0.9999    16.7997    14.7000     45.557      8.000 150721.000     60.000    45.6314   -20.0773   -27.7927   120.0962    -0.1480    -3.0001   -51.4584   250.0000   300.0000    67.5563    28.0365     3.0010     1.0017    14.0000    10.0000    17.0000    10.0000    19.0000    20.0000     8.0000    12.0000    -0.0005     0.0005   159.4167   -41.1662     1.9909    31.4997   249.9070     0.000
     68     1.0000    -0.0000     1.0000    16.6002    14.7000     45.821      9.000 150721.000     60.000    45.7769   -20.0773   -27.8829   120.0962    -0.1480    -3.0001   -51.2818   250.0000   300.0000    67.2156    28.2611     3.0010     1.0017    14.0000    10.0000    17.0000    10.0000    19.0000    20.0000     8.0000    12.0000    -0.0005     0.0005   159.4167   -41.1662     1.9909    31.3002   249.9020     0.000
     69     1.0000    -0.0000     0.9999    16.3999    14.7000     45.782     10.000 150721.000     60.000    45.9239   -20.0773   -27.9744   120.0962    -0.1480    -3.0001   -51.1048   250.0000   300.0000    66.8755    28.4838     3.0010     1.0017    14.0000    10.0000    17.0000    10.0000    19.0000    20.0000     8.0000    12.0000    -0.0005     0.0005   159.4167   -41.1662     1.9909    31.0999   250.0720     0.000
     70     1.0000    -0.0000     1.0000    16.2001    14.7000     45.773     12.000 150721.000     60.000    46.0723   -20.0773   -28.0665   120.0962    -0.1480    -3.0001   -50.9273   250.0000   300.0000    66.5364    28.7076     3.0010     1.0017    14.0000    10.0000    17.0000    10.0000    19.0000    20.0000     8.0000    12.0000    -0.0005     0.0005   159.4167   -41.1662     1.9910    30.9001   250.0000     0.000
     71     1.0000    -0.0000     1.0001    15.9997    14.7000     45.809     18.000 150721.000     60.000    46.2221   -20.0773   -28.1599   120.0962    -0.1480    -3.0001   -50.7492   250.0000   300.0000    66.1988    28.9292     3.0010     1.0017    14.0000    10.0000    17.0000    10.0000    19.0000    20.0000     8.0000    12.0000    -0.0005     0.0005   159.4167   -41.1662     1.9910    30.6997   250.0040     0.000
     72     1.0000    -0.0000     1.0000    15.8002    14.7000     45.751     11.000 150721.000     60.000    46.3734   -20.0773   -28.2537   120.0962    -0.1480    -3.0001   -50.5708   250.0000   300.0000    65.8609    29.1481     3.0010     1.0017    14.0000    10.0000    17.0000    10.0000    19.0000    20.0000     8.0000    12.0000    -0.0005     0.0005   159.4167   -41.1662     1.9910    30.5002   250.0300     0.000
     73     1.0000    -0.0000     1.0000    15.6002    14.7000     46.086      6.000 150721.000     60.000    46.5262   -20.0773   -28.3487   120.0962    -0.1480    -3.0001   -50.3918   250.0000   300.0000    65.5245    29.3657     3.0010     1.0017    14.0000    10.0000    17.0000    10.0000    19.0000    20.0000     8.0000    12.0000    -0.0005     0.0005   159.4167   -41.1662     1.9910    30.3002   249.8900     0.000
     74     1.0000    -0.0000     1.0001    15.4000    14.7000     46.560     14.000 150721.000     60.000    46.6805   -20.0773   -28.4449   120.0962    -0.1480    -3.0001   -50.2122   250.0000   300.0000    65.1891    29.5830     3.0010     1.0017    14.0000    10.0000    17.0000    10.0000    19.0000    20.0000     8.0000    12.0000    -0.0005     0.0005   159.4167   -41.1662     1.9910    30.1000   249.8830     0.000
     75     1.0000    -0.0000     1.0001    15.1997    14.7000     46.940      8.000 150721.000     60.000    46.8364   -20.0773   -28.5420   120.0962    -0.1480    -3.0001   -50.0322   250.0000   300.0000    64.8540    29.7989     3.0010     1.0017    14.0000    10.0000    17.0000    10.0000    19.0000    20.0000     8.0000    12.0000    -0.0005     0.0005   159.4167   -41.1662     1.9910    29.8998   250.0770     0.000
     76     1.0000    -0.0000     1.0000    15.0003    14.7000     46.893     15.000 150721.000     60.000    46.9938   -20.0773   -28.6397   120.0962    -0.1480    -3.0001   -49.8518   250.0000   300.0000    64.5194    30.0127     3.0010     1.0017    14.0000    10.0000    17.0000    10.0000    19.0000    20.0000     8.0000    12.0000    -0.0005     0.0005   159.4167   -41.1662     1.9910    29.7003   250.0690     0.000
     77     1.0000    -0.0000     1.0000    14.7996    14.7000     46.892     11.000 150721.000     60.000    47.1528   -20.0773   -28.7390   120.0962    -0.1480    -3.0001   -49.6707   250.0000   300.0000    64.1857    30.2265     3.0010     1.0017    14.0000    10.0000    17.0000    10.0000    19.0000    20.0000     8.0000    12.0000    -0.0005     0.0005   159.4167   -41.1662     1.9910    29.4996   250.0550     0.000
     78     1.0000    -0.0000     1.0000    14.6003    14.7000     46.581     20.000 150721.000     60.000    47.3135   -20.0773   -28.8387   120.0962    -0.1480    -3.0001   -49.4892   250.0000   300.0000    63.8534    30.4375     3.0010     1.0017    14.0000    10.0000    17.0000    10.0000    19.0000    20.0000     8.0000    12.0000    -0.0005     0.0005   159.4167   -41.1662     1.9909    29.3004   250.0940     0.000
     79     1.0000    -0.0000     0.9999    14.4000    14.7000     46.274     20.000 150721.000     60.000    47.4758   -20.0773   -28.9400   120.0962    -0.1480    -3.0001   -49.3071   250.0000   300.0000    63.5201    30.6489     3.0010     1.0017    14.0000    10.0000    17.0000    10.0000    19.0000    20.0000     8.0000    12.0000    -0.0005     0.0005   159.4167   -41.1662     1.9909    29.1000   249.9240     0.000
     80     1.0000    -0.0000     1.0000    14.1999    14.7000     45.548     13.000 150721.000     60.000    47.6398   -20.0773   -29.0421   120.0962    -0.1480    -3.0001   -49.1245   250.0000   300.0000    63.1885    30.8601     3.0010     1.0017    14.0000    10.0000    17.0000    10.0000    19.0000    20.0000     8.0000    12.0000    -0.0005     0.0005   159.4167   -41.1662     1.9909    28.8999   250.0760     0.000
     81     1.0000    -0.0000     1.0000    14.0000    14.7000     45.171     11.000 150721.000     60.000    47.8055   -20.0773   -29.1454   120.0962    -0.1480    -3.0001   -48.9414   250.0000   300.0000    62.8566    31.0698     3.0010     1.0017    14.0000    10.0000    17.0000    10.0000    19.0000    20.0000     8.0000    12.0000    -0.0005     0.0005   159.4167   -41.1662     1.9909    28.7000   250.0750     0.000
     82     1.0000    -0.0000     1.0000    13.8001    14.7000     44.408     20.000 150721.000     60.000    47.9729   -20.0773   -29.2497   120.0962    -0.1480    -3.0001   -48.7577   250.0000   300.0000    62.5256    31.2792     3.0010     1.0017    14.0000    10.0000    17.0000    10.0000    19.0000    20.0000     8.0000    12.0000    -0.0005     0.0005   159.4167   -41.1662     1.9910    28.5001   250.0440     0.000
     83     1.0000    -0.0000     1.0000    13.6000    14.7000     44.200     11.000 150721.000     60.000    48.1422   -20.0773   -29.3552   120.0962    -0.1480    -3.0001   -48.5734   250.0000   300.0000    62.1953    31.4867     3.0010     1.0017    14.0000    10.0000    17.0000    10.0000    19.0000    20.0000     8.0000    12.0000    -0.0005     0.0005   159.4167   -41.1662     1.9909    28.3000   250.0020     0.000
     84     1.0000    -0.0000     1.0000    13.4000    14.7000     43.836     16.000 150721.000     60.000    48.3132   -20.0773   -29.4618   120.0962    -0.1480    -3.0001   -48.3886   250.0000   300.0000    61.8645    31.6938     3.0010     1.0017    14.0000    10.0000    17.0000    10.0000    19.0000    20.0000     8.0000    12.0000    -0.0005     0.0005   159.4167   -41.1662     1.9910    28.1000   250.0210     0.000
     85     1.0000    -0.0000     1.0000    13.1999    14.7000     44.025     11.000 150721.000     60.000    48.4860   -20.0773   -29.5697   120.0962    -0.1480    -3.0001   -48.2033   250.0000   300.0000    61.5348    31.9001     3.0010     1.0017    14.0000    10.0000    17.0000    10.0000    19.0000    20.0000     8.0000    12.0000    -0.0005     0.0005   159.4167   -41.1662     1.9910    27.8999   250.1120     0.000
     86     1.0000    -0.0000     1.0000    13.0001    14.7000     44.240     24.000 150721.000     60.000    48.6608   -20.0773   -29.6786   120.0962    -0.1480    -3.0001   -48.0174   250.0000   300.0000    61.2045    32.1052     3.0010     1.0017    14.0000    10.0000    17.0000    10.0000    19.0000    20.0000     8.0000    12.0000    -0.0005     0.0005   159.4167   -41.1662     1.9910    27.7001   250.0750     0.000
     87     1.0000    -0.0000     1.0000    12.8001    14.7000     44.832     16.000 150721.000     60.000    48.8374   -20.0773   -29.7888   120.0962    -0.1480    -3.0001   -47.8309   250.0000   300.0000    60.8753    32.3096     3.0010     1.0017    14.0000    10.0000    17.0000    10.0000    19.0000    20.0000     8.0000    12.0000    -0.0005     0.0005   159.4167   -41.1662     1.9910    27.5001   249.8820     0.000
     88     1.0000    -0.0000     1.0000    12.6000    14.7000     45.466     21.000 150721.000     60.000    49.0160   -20.0773   -29.9003   120.0962    -0.1480    -3.0001   -47.6438   250.0000   300.0000    60.5456    32.5129     3.0010     1.0017    14.0000    10.0000    17.0000    10.0000    19.0000    20.0000     8.0000    12.0000    -0.0005     0.0005   159.4167   -41.1662     1.9910    27.3000   249.8620     0.000
     89     1.0000    -0.0000     1.0000    12.4000    14.7000     46.235     19.000 150721.000     60.000    49.1965   -20.0773   -30.0130   120.0962    -0.1480    -3.0001   -47.4562   250.0000   300.0000    60.2166    32.7157     3.0010     1.0017    14.0000    10.0000    17.0000    10.0000    19.0000    20.0000     8.0000    12.0000    -0.0005     0.0005   159.4167   -41.1662     1.9910    27.1001   249.9860     0.000
     90     1.0000    -0.0000     1.0000    12.2000    14.7000     46.836     25.000 150721.000     60.000    49.3790   -20.0773   -30.1270   120.0962    -0.1480    -3.0001   -47.2680   250.0000   300.0000    59.8878    32.9168     3.0010     1.0017    14.0000    10.0000    17.0000    10.0000    19.0000    20.0000     8.0000    12.0000    -0.0005     0.0005   159.4167   -41.1662     1.9910    26.9000   250.0530     0.000
     91     1.0000    -0.0000     1.0000    11.9999    14.7000     47.257     22.000 150721.000     60.000    49.5636   -20.0773   -30.2424   120.0962    -0.1480    -3.0001   -47.0791   250.0000   300.0000    59.5585    33.1170     3.0010     1.0017    14.0000    10.0000    17.0000    10.0000    19.0000    20.0000     8.0000    12.0000    -0.0005     0.0005   159.4167   -41.1662     1.9910    26.6999   250.0330     0.000
     92     1.0000    -0.0000     1.0000    11.7999    14.7000     47.499     20.000 150721.000     60.000    49.7503   -20.0773   -30.3590   120.0962    -0.1480    -3.0001   -46.8897   250.0000   300.0000    59.2295    33.3180     3.0010     1.0017    14.0000    10.0000    17.0000    10.0000    19.0000    20.0000     8.0000    12.0000    -0.0005     0.0005   159.4167   -41.1662     1.9910    26.4999   250.0990     0.000
     93     1.0000    -0.0000     1.0000    11.6001    14.7000     47.293     22.000 150721.000     60.000    49.9392   -20.0773   -30.4769   120.0962    -0.1480    -3.0001   -46.6996   250.0000   300.0000    58.9005    33.5170     3.0010     1.0017    14.0000    10.0000    17.0000    10.0000    19.0000    20.0000     8.0000    12.0000    -0.0005     0.0005   159.4167   -41.1662     1.9910    26.3001   249.9100     0.000
     94     1.0000    -0.0000     1.0000    11.4002    14.7000     46.902     31.000 150721.000     60.000    50.1301   -20.0773   -30.5963   120.0962    -0.1480    -3.0001   -46.5090   250.0000   300.0000    58.5719    33.7155     3.0010     1.0017    14.0000    10.0000    17.0000    10.0000    19.0000    20.0000     8.0000    12.0000    -0.0005     0.0005   159.4167   -41.1662     1.9910    26.1002   250.0660     0.000
     95     1.0000    -0.0000     1.0000    11.2001    14.7000     46.810     22.000 150721.000     60.000    50.3233   -20.0773   -30.7171   120.0962    -0.1480    -3.0001   -46.3176   250.0000   300.0000    58.2428    33.9131     3.0010     1.0017    14.0000    10.0000    17.0000    10.0000    19.0000    20.0000     8.0000    12.0000    -0.0005     0.0005   159.4167   -41.1662     1.9910    25.9001   250.0270     0.000
     96     1.0000    -0.0000     1.0000    10.9997    14.7000     46.437     31.000 150721.000     60.000    50.5187   -20.0773   -30.8396   120.0962    -0.1480    -3.0001   -46.1257   250.0000   300.0000    57.9136    34.1096     3.0010     1.0017    14.0000    10.0000    17.0000    10.0000    19.0000    20.0000     8.0000    12.0000    -0.0005     0.0005   159.4167   -41.1662     1.9910    25.6997   250.0600     0.000
     97     1.0000    -0.0000     1.0000    10.8001    14.7000     46.162     23.000 150721.000     60.000    50.7164   -20.0773   -30.9631   120.0962    -0.1480    -3.0001   -45.9331   250.0000   300.0000    57.5841    34.3058     3.0010     1.0017    14.0000    10.0000    17.0000    10.0000    19.0000    20.0000     8.0000    12.0000    -0.0005     0.0005   159.4167   -41.1662     1.9910    25.5001   250.1040     0.000
     98     1.0000    -0.0000     1.0000    10.5997    14.7000     46.253     24.000 150721.000     60.000    50.9165   -20.0773   -31.0886   120.0962    -0.1480    -3.0001   -45.7399   250.0000   300.0000    57.2551    34.5017     3.0010     1.0017    14.0000    10.0000    17.0000    10.0000    19.0000    20.0000     8.0000    12.0000    -0.0005     0.0005   159.4167   -41.1662     1.9910    25.2997   249.9360     0.000
     99     1.0000    -0.0000     1.0000    10.4003    14.7000     46.125     26.000 150721.000     60.000    51.1190   -20.0773   -31.2149   120.0962    -0.1480    -3.0001   -45.5460   250.0000   300.0000    56.9251    34.6954     3.0010     1.0017    14.0000    10.0000    17.0000    10.0000    19.0000    20.0000     8.0000    12.0000    -0.0005     0.0005   159.4167   -41.1662     1.9910    25.1003   249.9990     0.000
    100     1.0000    -0.0000     1.0000    10.2002    14.7000     46.394     35.000 150721.000     60.000    51.3239   -20.0773   -31.3433   120.0962    -0.1480    -3.0001   -45.3514   250.0000   300.0000    56.5954    34.8885     3.0010     1.0017    14.0000    10.0000    17.0000    10.0000    19.0000    20.0000     8.0000    12.0000    -0.0005     0.0005   159.4167   -41.1662     1.9909    24.9002   250.0980     0.000
    101     1.0000    -0.0000     1.0000    10.0001    14.7000     46.943     31.000 150721.000     60.000    51.5312   -20.0773   -31.4733   120.0962    -0.1480    -3.0001   -45.1562   250.0000   300.0000    56.2653    35.0826     3.0010     1.0017    14.0000    10.0000    17.0000    10.0000    19.0000    20.0000     8.0000    12.0000    -0.0005     0.0005   159.4167   -41.1662     1.9910    24.7001   250.0450     0.000
    102     1.0000    -0.0000     1.0000     9.8001    14.7000     47.710     27.000 150721.000     60.000    51.7411   -20.0773   -31.6049   120.0962    -0.1480    -3.0001   -44.9603   250.0000   300.0000    55.9353    35.2757     3.0010     1.0017    14.0000    10.0000    17.0000    10.0000    19.0000    20.0000     8.0000    12.0000    -0.0005     0.0005   159.4167   -41.1662     1.9910    24.5001   250.0950     0.000
    103     1.0000    -0.0000     1.0000     9.5996    14.7000     48.264     31.000 150721.000     60.000    51.9536   -20.0773   -31.7384   120.0962    -0.1480    -3.0001   -44.7637   250.0000   300.0000    55.6040    35.4651     3.0010     1.0017    14.0000    10.0000    17.0000    10.0000    19.0000    20.0000     8.0000    12.0000    -0.0005     0.0005   159.4167   -41.1662     1.9909    24.2996   249.9190     0.000
    104     1.0000    -0.0000     1.0000     9.4002    14.7000     49.054     36.000 150721.000     60.000    52.1687   -20.0773   -31.8729   120.0962    -0.1480    -3.0001   -44.5664   250.0000   300.0000    55.2730    35.6578     3.0010     1.0017    14.0000    10.0000    17.0000    10.0000    19.0000    20.0000     8.0000    12.0000    -0.0005     0.0005   159.4167   -41.1662     1.9910    24.1002   250.0810     0.000
    105     1.0000    -0.0000     1.0000     9.2000    14.7000     49.086     38.000 150721.000     60.000    52.3866   -20.0773   -32.0097   120.0962    -0.1480    -3.0001   -44.3684   250.0000   300.0000    54.9411    35.8475     3.0010     1.0017    14.0000    10.0000    17.0000    10.0000    19.0000    20.0000     8.0000    12.0000    -0.0005     0.0005   159.4167   -41.1662     1.9909    23.9000   250.0470     0.000
    106     1.0000    -0.0000     1.0000     8.9999    14.7000     49.011     41.000 150721.000     60.000    52.6071   -20.0773   -32.1482   120.0962    -0.1480    -3.0001   -44.1697   250.0000   300.0000    54.6095    36.0375     3.0010     1.0017    14.0000    10.0000    17.0000    10.0000    19.0000    20.0000     8.0000    12.0000    -0.0005     0.0005   159.4167   -41.1662     1.9909    23.6999   249.9420     0.000
    107     1.0000    -0.0000     1.0000     8.7999    14.7000     47.866     45.000 150721.000     60.000    52.8305   -20.0773   -32.2884   120.0962    -0.1480    -3.0001   -43.9703   250.0000   300.0000    54.2766    36.2281     3.0010     1.0017    14.0000    10.0000    17.0000    10.0000    19.0000    20.0000     8.0000    12.0000    -0.0005     0.0005   159.4167   -41.1662     1.9910    23.4999   249.9470     0.000
    108     1.0000    -0.0000     1.0000     8.6001    14.7000     46.873     44.000 150721.000     60.000    53.0568   -20.0773   -32.4304   120.0962    -0.1480    -3.0001   -43.7701   250.0000   300.0000    53.9440    36.4161     3.0010     1.0017    14.0000    10.0000    17.0000    10.0000    19.0000    20.0000     8.0000    12.0000    -0.0005     0.0005   159.4167   -41.1662     1.9910    23.3001   250.0120     0.000
    109     1.0001    -0.0000     1.0001     8.3998    14.7000     45.434     57.000 150721.000     60.000    53.2860   -20.0773   -32.5746   120.0962    -0.1480    -3.0001   -43.5692   250.0000   300.0000    53.6103    36.6060     3.0010     1.0017    14.0000    10.0000    17.0000    10.0000    19.0000    20.0000     8.0000    12.0000    -0.0005     0.0005   159.4167   -41.1662     1.9911    23.0998   250.0020     0.000
    110     1.0000    -0.0000     1.0000     8.2001    14.7000     44.187     57.000 150721.000     60.000    53.5181   -20.0773   -32.7203   120.0962    -0.1480    -3.0001   -43.3675   250.0000   300.0000    53.2755    36.7924     3.0010     1.0017    14.0000    10.0000    17.0000    10.0000    19.0000    20.0000     8.0000    12.0000    -0.0005     0.0005   159.4167   -41.1662     1.9910    22.9001   250.0260     0.000
    111     1.0000    -0.0000     1.0000     7.9999    14.7000     43.448     65.000 150721.000     60.000    53.7534   -20.0773   -32.8683   120.0962    -0.1480    -3.0001   -43.1651   250.0000   300.0000    52.9410    36.9790     3.0010     1.0017    14.0000    10.0000    17.0000    10.0000    19.0000    20.0000     8.0000    12.0000    -0.0005     0.0005   159.4167   -41.1662     1.9910    22.6999   249.9820     0.000
    112     1.0000    -0.0000     1.0000     7.7999    14.7000     42.977     74.000 150721.000     60.000    53.9918   -20.0773   -33.0182   120.0962    -0.1480    -3.0001   -42.9618   250.0000   300.0000    52.6054    37.1647     3.0010     1.0017    14.0000    10.0000    17.0000    10.0000    19.0000    20.0000     8.0000    12.0000    -0.0005     0.0005   159.4167   -41.1662     1.9910    22.4999   249.9470     0.000
    113     1.0000    -0.0000     1.0000     7.6002    14.7000     42.548     75.000 150721.000     60.000    54.2334   -20.0773   -33.1700   120.0962    -0.1480    -3.0001   -42.7578   250.0000   300.0000    52.2694    37.3499     3.0010     1.0017    14.0000    10.0000    17.0000    10.0000    19.0000    20.0000     8.0000    12.0000    -0.0005     0.0005   159.4167   -41.1662     1.9910    22.3003   249.8630     0.000
    114     1.0000    -0.0000     1.0000     7.3997    14.7000     42.795     58.000 150721.000     60.000    54.4782   -20.0773   -33.3245   120.0962    -0.1480    -3.0001   -42.5531   250.0000   300.0000    51.9323    37.5344     3.0010     1.0017    14.0000    10.0000    17.0000    10.0000    19.0000    20.0000     8.0000    12.0000    -0.0005     0.0005   159.4167   -41.1662     1.9910    22.0997   249.8830     0.000
    115     1.0000    -0.0000     1.0000     7.2002    14.7000     42.818     66.000 150721.000     60.000    54.7264   -20.0773   -33.4804   120.0962    -0.1480    -3.0001   -42.3475   250.0000   300.0000    51.5941    37.7182     3.0010     1.0017    14.0000    10.0000    17.0000    10.0000    19.0000    20.0000     8.0000    12.0000    -0.0005     0.0005   159.4167   -41.1662     1.9910    21.9002   249.9540     0.000
    116     1.0000    -0.0000     1.0000     6.9999    14.7000     43.017     79.000 150721.000     60.000    54.9780   -20.0773   -33.6391   120.0962    -0.1480    -3.0001   -42.1410   250.0000   300.0000    51.2554    37.9015     3.0010     1.0017    14.0000    10.0000    17.0000    10.0000    19.0000    20.0000     8.0000    12.0000    -0.0005     0.0005   159.4167   -41.1662     1.9910    21.6999   249.8930     0.000
    117     1.0000    -0.0000     1.0000     6.7998    14.7000     43.149    100.000 150721.000     60.000    55.2331   -20.0773   -33.7999   120.0962    -0.1480    -3.0001   -41.9338   250.0000   300.0000    50.9159    38.0828     3.0010     1.0017    14.0000    10.0000    17.0000    10.0000    19.0000    20.0000     8.0000    12.0000    -0.0005     0.0005   159.4167   -41.1662     1.9909    21.4999   250.0120     0.000
    118     1.0000    -0.0000     1.0000     6.6002    14.7000     43.300     94.000 150721.000     60.000    55.4918   -20.0773   -33.9628   120.0962    -0.1480    -3.0001   -41.7257   250.0000   300.0000    50.5754    38.2655     3.0010     1.0017    14.0000    10.0000    17.0000    10.0000    19.0000    20.0000     8.0000    12.0000    -0.0005     0.0005   159.4167   -41.1662     1.9910    21.3002   250.0620     0.000
    119     1.0000    -0.0000     1.0000     6.4000    14.7000     44.062     95.000 150721.000     60.000    55.7542   -20.0773   -34.1284   120.0962    -0.1480    -3.0001   -41.5168   250.0000   300.0000    50.2339    38.4460     3.0010     1.0017    14.0000    10.0000    17.0000    10.0000    19.0000    20.0000     8.0000    12.0000    -0.0005     0.0005   159.4167   -41.1662     1.9909    21.1000   250.0890     0.000
    120     1.0000    -0.0000     1.0000     6.2001    14.7000     44.207     98.000 150721.000     60.000    56.0203   -20.0773   -34.2962   120.0962    -0.1480    -3.0001   -41.3070   250.0000   300.0000    49.8910    38.6279     3.0010     1.0017    14.0000    10.0000    17.0000    10.0000    19.0000    20.0000     8.0000    12.0000    -0.0005     0.0005   159.4167   -41.1662     1.9910    20.9001   250.0230     0.000
    121     1.0000    -0.0000     1.0000     5.9999    14.7000     45.037    100.000 150721.000     60.000    56.2903   -20.0773   -34.4668   120.0962    -0.1480    -3.0001   -41.0963   250.0000   300.0000    49.5479    38.8088     3.0010     1.0017    14.0000    10.0000    17.0000    10.0000    19.0000    20.0000     8.0000    12.0000    -0.0005     0.0005   159.4167   -41.1662     1.9910    20.6999   249.9990     0.000
    122     1.0000    -0.0000     1.0000     5.7998    14.7000     45.751    118.000 150721.000     60.000    56.5643   -20.0773   -34.6400   120.0962    -0.1480    -3.0001   -40.8847   250.0000   300.0000    49.2030    38.9893     3.0010     1.0017    14.0000    10.0000    17.0000    10.0000    19.0000    20.0000     8.0000    12.0000    -0.0005     0.0005   159.4167   -41.1662     1.9910    20.4998   250.0150     0.000
    123     1.0000    -0.0000     1.0000     5.5999    14.7000     46.354    129.000 150721.000     60.000    56.8422   -20.0773   -34.8155   120.0962    -0.1480    -3.0001   -40.6722   250.0000   300.0000    48.8571    39.1680     3.0010     1.0017    14.0000    10.0000    17.0000    10.0000    19.0000    20.0000     8.0000    12.0000    -0.0005     0.0005   159.4167   -41.1662     1.9910    20.3000   250.0890     0.000
    124     1.0000    -0.0000     1.0000     5.4001    14.7000     47.376    129.000 150721.000     60.000    57.1243   -20.0773   -34.9937   120.0962    -0.1480    -3.0001   -40.4588   250.0000   300.0000    48.5100    39.3466     3.0010     1.0017    14.0000    10.0000    17.0000    10.0000    19.0000    20.0000     8.0000    12.0000    -0.0005     0.0005   159.4167   -41.1662     1.9910    20.1001   249.9370     0.000
    125     1.0000    -0.0000     1.0000     5.1998    14.7000     47.559    153.000 150721.000     60.000    57.4107   -20.0773   -35.1750   120.0962    -0.1480    -3.0001   -40.2445   250.0000   300.0000    48.1614    39.5245     3.0010     1.0017    14.0000    10.0000    17.0000    10.0000    19.0000    20.0000     8.0000    12.0000    -0.0005     0.0005   159.4167   -41.1662     1.9910    19.8999   249.9780     0.000
    126     1.0000    -0.0000     1.0000     5.0001    14.7000     48.243    166.000 150721.000     60.000    57.7013   -20.0773   -35.3588   120.0962    -0.1480    -3.0001   -40.0292   250.0000   300.0000    47.8122    39.7003     3.0010     1.0017    14.0000    10.0000    17.0000    10.0000    19.0000    20.0000     8.0000    12.0000    -0.0005     0.0005   159.4167   -41.1662     1.9910    19.7001   250.0540     0.000
    127     1.0000    -0.0000     1.0000     4.8001    14.7000     48.595    158.000 150721.000     60.000    57.9965   -20.0773   -35.5457   120.0962    -0.1480    -3.0001   -39.8130   250.0000   300.0000    47.4606    39.8767     3.0010     1.0017    14.0000    10.0000    17.0000    10.0000    19.0000    20.0000     8.0000    12.0000    -0.0005     0.0005   159.4167   -41.1662     1.9910    19.5001   250.0110     0.000
    128     1.0000    -0.0000     1.0000     4.6000    14.7000     48.675    172.000 150721.000     60.000    58.2962   -20.0773   -35.7356   120.0962    -0.1480    -3.0001   -39.5958   250.0000   300.0000    47.1089    40.0511     3.0010     1.0017    14.0000    10.0000    17.0000    10.0000    19.0000    20.0000     8.0000    12.0000    -0.0005     0.0005   159.4167   -41.1662     1.9909    19.3000   249.8770     0.000
    129     1.0000    -0.0000     1.0000     4.4000    14.7000     49.174    227.000 150721.000     60.000    58.6006   -20.0773   -35.9286   120.0962    -0.1480    -3.0001   -39.3776   250.0000   300.0000    46.7548    40.2273     3.0010     1.0017    14.0000    10.0000    17.0000    10.0000    19.0000    20.0000     8.0000    12.0000    -0.0005     0.0005   159.4167   -41.1662     1.9910    19.1000   250.0060     0.000
    130     1.0001    -0.0000     1.0000     4.2000    14.7000     49.426    236.000 150721.000     60.000    58.9098   -20.0773   -36.1247   120.0962    -0.1480    -3.0001   -39.1584   250.0000   300.0000    46.3991    40.4046     3.0010     1.0017    14.0000    10.0000    17.0000    10.0000    19.0000    20.0000     8.0000    12.0000    -0.0005     0.0005   159.4167   -41.1662     1.9911    18.9001   249.9980     0.000
    131     1.0001    -0.0000     1.0000     3.9998    14.7000     50.022    218.000 150721.000     60.000    59.2240   -20.0773   -36.3242   120.0962    -0.1480    -3.0001   -38.9382   250.0000   300.0000    46.0425    40.5781     3.0010     1.0017    14.0000    10.0000    17.0000    10.0000    19.0000    20.0000     8.0000    12.0000    -0.0005     0.0005   159.4167   -41.1662     1.9911    18.6999   250.0720     0.000
    132     1.0000    -0.0000     1.0000     3.8002    14.7000     51.111    240.000 150721.000     60.000    59.5433   -20.0773   -36.5266   120.0962    -0.1480    -3.0001   -38.7169   250.0000   300.0000    45.6835    40.7499     3.0010     1.0017    14.0000    10.0000    17.0000    10.0000    19.0000    20.0000     8.0000    12.0000    -0.0005     0.0005   159.4167   -41.1662     1.9910    18.5002   249.9270     0.000
    133     1.0000    -0.0000     1.0000     3.5999    14.7000     51.668    266.000 150721.000     60.000    59.8678   -20.0773   -36.7330   120.0962    -0.1480    -3.0001   -38.4946   250.0000   300.0000    45.3234    40.9231     3.0010     1.0017    14.0000    10.0000    17.0000    10.0000    19.0000    20.0000     8.0000    12.0000    -0.0005     0.0005   159.4167   -41.1662     1.9910    18.2999   250.0180     0.000
    134     1.0000    -0.0000     1.0000     3.3998    14.7000     53.318    288.000 150721.000     60.000    60.1976   -20.0773   -36.9428   120.0962    -0.1480    -3.0001   -38.2712   250.0000   300.0000    44.9611    41.0934     3.0010     1.0017    14.0000    10.0000    17.0000    10.0000    19.0000    20.0000     8.0000    12.0000    -0.0005     0.0005   159.4167   -41.1662     1.9910    18.0999   249.8890     0.000
    135     1.0000    -0.0000     1.0000     3.2002    14.7000     54.996    287.000 150721.000     60.000    60.5330   -20.0773   -37.1557   120.0962    -0.1480    -3.0001   -38.0467   250.0000   300.0000    44.5977    41.2625     3.0010     1.0017    14.0000    10.0000    17.0000    10.0000    19.0000    20.0000     8.0000    12.0000    -0.0005     0.0005   159.4167   -41.1662     1.9909    17.9002   250.0720     0.000
    136     1.0000    -0.0000     1.0000     3.0002    14.7000     56.840    284.000 150721.000     60.000    60.8740   -20.0773   -37.3728   120.0962    -0.1480    -3.0001   -37.8211   250.0000   300.0000    44.2315    41.4344     3.0010     1.0017    14.0000    10.0000    17.0000    10.0000    19.0000    20.0000     8.0000    12.0000    -0.0005     0.0005   159.4167   -41.1662     1.9910    17.7002   249.9170     0.000
    137     1.0000    -0.0000     1.0000     2.7998    14.7000     56.488    379.000 150721.000     60.000    61.2209   -20.0773   -37.5941   120.0962    -0.1480    -3.0001   -37.5944   250.0000   300.0000    43.8641    41.6048     3.0010     1.0017    14.0000    10.0000    17.0000    10.0000    19.0000    20.0000     8.0000    12.0000    -0.0005     0.0005   159.4167   -41.1662     1.9910    17.4998   250.0000     0.000
    138     1.0000    -0.0000     1.0000     2.6001    14.7000     55.700    378.000 150721.000     60.000    61.5738   -20.0773   -37.8187   120.0962    -0.1480    -3.0001   -37.3665   250.0000   300.0000    43.4944    41.7747     3.0010     1.0017    14.0000    10.0000    17.0000    10.0000    19.0000    20.0000     8.0000    12.0000    -0.0005     0.0005   159.4167   -41.1662     1.9910    17.3001   249.9420     0.000
    139     1.0000    -0.0000     1.0000     2.3999    14.7000     55.469    404.000 150721.000     60.000    61.9328   -20.0773   -38.0479   120.0962    -0.1480    -3.0001   -37.1375   250.0000   300.0000    43.1225    41.9426     3.0010     1.0017    14.0000    10.0000    17.0000    10.0000    19.0000    20.0000     8.0000    12.0000    -0.0005     0.0005   159.4167   -41.1662     1.9910    17.0999   250.0880     0.000
    140     1.0000    -0.0000     1.0000     2.1999    14.7000     56.225    302.000 150721.000     60.000    62.2982   -20.0773   -38.2810   120.0962    -0.1480    -3.0001   -36.9072   250.0000   300.0000    42.7484    42.1094     3.0010     1.0017    14.0000    10.0000    17.0000    10.0000    19.0000    20.0000     8.0000    12.0000    -0.0005     0.0005   159.4167   -41.1662     1.9910    16.8999   250.0520     0.000
    141     1.0000    -0.0000     1.0000     2.0000    14.7000     57.024    242.000 150721.000     60.000    62.6702   -20.0773   -38.5184   120.0962    -0.1480    -3.0001   -36.6758   250.0000   300.0000    42.3724    42.2749     3.0010     1.0017    14.0000    10.0000    17.0000    10.0000    19.0000    20.0000     8.0000    12.0000    -0.0005     0.0005   159.4167   -41.1662     1.9909    16.7000   249.9950     0.000
    142     1.0000    -0.0000     1.0000     1.7999    14.7000     57.634    269.000 150721.000     60.000    63.0488   -20.0773   -38.7606   120.0962    -0.1480    -3.0001   -36.4432   250.0000   300.0000    41.9937    42.4397     3.0010     1.0017    14.0000    10.0000    17.0000    10.0000    19.0000    20.0000     8.0000    12.0000    -0.0005     0.0005   159.4167   -41.1662     1.9909    16.4999   250.0430     0.000
    143     1.0000    -0.0000     1.0000     1.6000    14.7000     58.682    287.000 150721.000     60.000    63.4344   -20.0773   -39.0071   120.0962    -0.1480    -3.0001   -36.2092   250.0000   300.0000    41.6127    42.6066     3.0010     1.0017    14.0000    10.0000    17.0000    10.0000    19.0000    20.0000     8.0000    12.0000    -0.0005     0.0005   159.4167   -41.1662     1.9910    16.3000   249.9400     0.000
    144     1.0001    -0.0000     1.0000     1.4000    14.7000     59.063    316.000 150721.000     60.000    63.8273   -20.0773   -39.2585   120.0962    -0.1480    -3.0001   -35.9740   250.0000   300.0000    41.2291    42.7725     3.0010     1.0017    14.0000    10.0000    17.0000    10.0000    19.0000    20.0000     8.0000    12.0000    -0.0005     0.0005   159.4167   -41.1662     1.9911    16.1001   249.9330     0.000
    145     1.0000    -0.0000     1.0000     1.2000    14.7000     61.681    372.000 150721.000     60.000    64.2274   -20.0773   -39.5148   120.0962    -0.1480    -3.0001   -35.7375   250.0000   300.0000    40.8434    42.9351     3.0010     1.0017    14.0000    10.0000    17.0000    10.0000    19.0000    20.0000     8.0000    12.0000    -0.0005     0.0005   159.4167   -41.1662     1.9910    15.9001   249.9810     0.000
    146     1.0000    -0.0000     1.0000     0.9998    14.7000     65.125    404.000 150721.000     60.000    64.6352   -20.0773   -39.7765   120.0962    -0.1480    -3.0001   -35.4997   250.0000   300.0000    40.4548    43.0960     3.0010     1.0017    14.0000    10.0000    17.0000    10.0000    19.0000    20.0000     8.0000    12.0000    -0.0005     0.0005   159.4167   -41.1662     1.9909    15.6999   250.0010     0.000
    147     1.0000    -0.0000     1.0000     0.7999    14.7000     65.375    577.000 150721.000     60.000    65.0509   -20.0773   -40.0431   120.0962    -0.1480    -3.0001   -35.2605   250.0000   300.0000    40.0633    43.2574     3.0010     1.0017    14.0000    10.0000    17.0000    10.0000    19.0000    20.0000     8.0000    12.0000    -0.0005     0.0005   159.4167   -41.1662     1.9909    15.5000   250.0510     0.000
    148     1.0000    -0.0000     1.0000     0.6000    14.7000     64.800   1198.000 150721.000     60.000    65.4747   -20.0773   -40.3152   120.0962    -0.1480    -3.0001   -35.0199   250.0000   300.0000    39.6689    43.4186     3.0010     1.0017    14.0000    10.0000    17.0000    10.0000    19.0000    20.0000     8.0000    12.0000    -0.0005     0.0005   159.4167   -41.1662     1.9910    15.3000   250.0190     0.000
# Sum of Counts = 11547
# Center of Mass = 6.522124+/-0.114155
# Full Width Half-Maximum = 16.173556+/-0.195244
# 7:32:42 PM  9/21/2024   scan completed.
