# scan = 37
# date = 9/21/2024
# time = 2:46:44 PM
# proposal = 34735
# experiment = Magnons and paramagnon coupling in MnTe
# experiment_number = 816
# command = scan h 1.5 k 0.0 l 1.5 e 45 8 0.2 ef 14.7 preset mcu 60
# builtin_command = scan h 1.5 k 0.0 l 1.5 e 45 8 0.2 ef 14.7 preset mcu 60
# users = Benjamin Frandsen, Songxue Chi, George Yumnam, Huibo Cao, Michael Manley, Raphael Hermann, Eleanor Clements
# local_contact = Eleanor Clements
# scan_title = H0L scans along (101) to (1.5, 0, 1.5) at H/L = 1.5/0.5, mcu = 60, E = 45 to 8 mev
# monochromator = PG002
# analyzer = Pg002
# sense = -+-
# collimation = 48-40-40-120
# samplename = MnTe
# sampletype = crystal
# samplemosaic = 30.000000
# latticeconstants = 4.134597,4.134597,6.679746,90.000000,90.000000,120.000000
# ubmatrix = -0.273127,-0.149222,-0.030247,-0.056745,-0.024153,0.146560,-0.013326,0.234830,-0.004146
# mode = 0
# plane_normal = -0.052339,0.017444,0.998477
# ubconf = UB21Sep2024_13243PM.ini
# preset_type = normal 
# preset_channel = mcu
# preset_value = 60.000000
# def_x = e
# def_y = detector
# col_headers = 
#   Pt.          h          k          l          e         ef       time   detector    monitor        mcu focal_length         m1         m2   mcrystal       marc     mtrans     mfocus       temp     temp_2         s1         s2        sgl        sgu        bbb        bbl        bbr        bbt        bab        bal        bar        bat        stl        stu         a1         a2          q         ei        vti     sample
      1     1.5001    -0.0000     1.5000    45.0058    14.7000     49.970     18.000 150721.000     60.000    33.1461   -20.0773   -20.0926   120.0962    -0.1480    -3.0001   -73.0266   250.0000   300.0000    89.3784    19.2972     3.0010     1.0017    14.0000    10.0000    17.0000    10.0000    19.0000    20.0000     8.0000    12.0000    -0.0005     0.0005   159.4167   -41.1662     2.9867    59.7059   249.9890     0.000
      2     1.5000    -0.0000     1.5001    44.8006    14.7000     49.891     23.000 150721.000     60.000    33.2017   -20.0773   -20.1276   120.0962    -0.1480    -3.0001   -72.8904   250.0000   300.0000    89.1054    19.6096     3.0010     1.0017    14.0000    10.0000    17.0000    10.0000    19.0000    20.0000     8.0000    12.0000    -0.0005     0.0005   159.4167   -41.1662     2.9865    59.5006   250.0390     0.000
      3     1.5000    -0.0000     1.5000    44.5995    14.7000     49.452     52.000 150721.000     60.000    33.2576   -20.0773   -20.1621   120.0962    -0.1480    -3.0001   -72.7541   250.0000   300.0000    88.8374    19.9137     3.0010     1.0017    14.0000    10.0000    17.0000    10.0000    19.0000    20.0000     8.0000    12.0000    -0.0005     0.0005   159.4167   -41.1662     2.9864    59.2995   249.8930     0.000
      4     1.5000    -0.0000     1.5000    44.4000    14.7000     49.110    487.000 150721.000     60.000    33.3139   -20.0773   -20.1964   120.0962    -0.1480    -3.0001   -72.6175   250.0000   300.0000    88.5722    20.2149     3.0010     1.0017    14.0000    10.0000    17.0000    10.0000    19.0000    20.0000     8.0000    12.0000    -0.0005     0.0005   159.4167   -41.1662     2.9865    59.1000   250.0810     0.000
      5     1.5000    -0.0000     1.5000    44.1999    14.7000     48.831    202.000 150721.000     60.000    33.3704   -20.0773   -20.2311   120.0962    -0.1480    -3.0001   -72.4808   250.0000   300.0000    88.3104    20.5119     3.0010     1.0017    14.0000    10.0000    17.0000    10.0000    19.0000    20.0000     8.0000    12.0000    -0.0005     0.0005   159.4167   -41.1662     2.9865    58.8999   250.0380     0.000
      6     1.5000    -0.0000     1.5001    44.0002    14.7000     49.017     27.000 150721.000     60.000    33.4272   -20.0773   -20.2658   120.0962    -0.1480    -3.0001   -72.3439   250.0000   300.0000    88.0521    20.8080     3.0010     1.0017    14.0000    10.0000    17.0000    10.0000    19.0000    20.0000     8.0000    12.0000    -0.0005     0.0005   159.4167   -41.1662     2.9865    58.7002   250.0130     0.000
      7     1.5000    -0.0000     1.5000    43.7988    14.7000     48.861     20.000 150721.000     60.000    33.4843   -20.0773   -20.3011   120.0962    -0.1480    -3.0001   -72.2068   250.0000   300.0000    87.7964    21.0960     3.0010     1.0017    14.0000    10.0000    17.0000    10.0000    19.0000    20.0000     8.0000    12.0000    -0.0005     0.0005   159.4167   -41.1662     2.9864    58.4988   249.9130     0.000
      8     1.5000    -0.0000     1.5001    43.6001    14.7000     48.665     20.000 150721.000     60.000    33.5417   -20.0773   -20.3360   120.0962    -0.1480    -3.0001   -72.0695   250.0000   300.0000    87.5444    21.3851     3.0010     1.0017    14.0000    10.0000    17.0000    10.0000    19.0000    20.0000     8.0000    12.0000    -0.0005     0.0005   159.4167   -41.1662     2.9865    58.3001   250.0900     0.000
      9     1.5000    -0.0000     1.5000    43.4004    14.7000     48.686     18.000 150721.000     60.000    33.5993   -20.0773   -20.3713   120.0962    -0.1480    -3.0001   -71.9320   250.0000   300.0000    87.2949    21.6666     3.0010     1.0017    14.0000    10.0000    17.0000    10.0000    19.0000    20.0000     8.0000    12.0000    -0.0005     0.0005   159.4167   -41.1662     2.9864    58.1005   250.0370     0.000
     10     1.5000    -0.0000     1.5000    43.2000    14.7000     48.748     16.000 150721.000     60.000    33.6573   -20.0773   -20.4069   120.0962    -0.1480    -3.0001   -71.7944   250.0000   300.0000    87.0478    21.9497     3.0010     1.0017    14.0000    10.0000    17.0000    10.0000    19.0000    20.0000     8.0000    12.0000    -0.0005     0.0005   159.4167   -41.1662     2.9865    57.9000   249.8520     0.000
     11     1.5000    -0.0000     1.5000    43.0002    14.7000     48.524     20.000 150721.000     60.000    33.7156   -20.0773   -20.4425   120.0962    -0.1480    -3.0001   -71.6566   250.0000   300.0000    86.8038    22.2271     3.0010     1.0017    14.0000    10.0000    17.0000    10.0000    19.0000    20.0000     8.0000    12.0000    -0.0005     0.0005   159.4167   -41.1662     2.9864    57.7003   250.0390     0.000
     12     1.5000    -0.0000     1.5000    42.7991    14.7000     48.672     12.000 150721.000     60.000    33.7742   -20.0773   -20.4787   120.0962    -0.1480    -3.0001   -71.5185   250.0000   300.0000    86.5615    22.5037     3.0010     1.0017    14.0000    10.0000    17.0000    10.0000    19.0000    20.0000     8.0000    12.0000    -0.0005     0.0005   159.4167   -41.1662     2.9864    57.4992   250.0320     0.000
     13     1.5001    -0.0000     1.5001    42.6010    14.7000     48.638     15.000 150721.000     60.000    33.8331   -20.0773   -20.5144   120.0962    -0.1480    -3.0001   -71.3803   250.0000   300.0000    86.3226    22.7781     3.0010     1.0017    14.0000    10.0000    17.0000    10.0000    19.0000    20.0000     8.0000    12.0000    -0.0005     0.0005   159.4167   -41.1662     2.9865    57.3010   250.0200     0.000
     14     1.5000    -0.0000     1.4999    42.3993    14.7000     49.028     10.000 150721.000     60.000    33.8923   -20.0773   -20.5510   120.0962    -0.1480    -3.0001   -71.2419   250.0000   300.0000    86.0853    23.0452     3.0010     1.0017    14.0000    10.0000    17.0000    10.0000    19.0000    20.0000     8.0000    12.0000    -0.0005     0.0005   159.4167   -41.1662     2.9864    57.0993   250.0010     0.000
     15     1.5000    -0.0000     1.5000    42.1993    14.7000     48.878     10.000 150721.000     60.000    33.9518   -20.0773   -20.5875   120.0962    -0.1480    -3.0001   -71.1034   250.0000   300.0000    85.8509    23.3161     3.0010     1.0017    14.0000    10.0000    17.0000    10.0000    19.0000    20.0000     8.0000    12.0000    -0.0005     0.0005   159.4167   -41.1662     2.9865    56.8993   250.0540     0.000
     16     1.5000    -0.0000     1.5000    42.0008    14.7000     49.190      7.000 150721.000     60.000    34.0116   -20.0773   -20.6239   120.0962    -0.1480    -3.0001   -70.9646   250.0000   300.0000    85.6184    23.5814     3.0010     1.0017    14.0000    10.0000    17.0000    10.0000    19.0000    20.0000     8.0000    12.0000    -0.0005     0.0005   159.4167   -41.1662     2.9865    56.7008   250.0220     0.000
     17     1.5000    -0.0000     1.5000    41.8000    14.7000     49.378     14.000 150721.000     60.000    34.0718   -20.0773   -20.6609   120.0962    -0.1480    -3.0001   -70.8256   250.0000   300.0000    85.3875    23.8434     3.0010     1.0017    14.0000    10.0000    17.0000    10.0000    19.0000    20.0000     8.0000    12.0000    -0.0005     0.0005   159.4167   -41.1662     2.9864    56.5000   249.8670     0.000
     18     1.5000    -0.0000     1.5000    41.5999    14.7000     49.441      6.000 150721.000     60.000    34.1322   -20.0773   -20.6980   120.0962    -0.1480    -3.0001   -70.6864   250.0000   300.0000    85.1594    24.1056     3.0010     1.0017    14.0000    10.0000    17.0000    10.0000    19.0000    20.0000     8.0000    12.0000    -0.0005     0.0005   159.4167   -41.1662     2.9865    56.3000   250.0400     0.000
     19     1.5000    -0.0000     1.5000    41.3992    14.7000     49.658     12.000 150721.000     60.000    34.1930   -20.0773   -20.7354   120.0962    -0.1480    -3.0001   -70.5471   250.0000   300.0000    84.9327    24.3659     3.0010     1.0017    14.0000    10.0000    17.0000    10.0000    19.0000    20.0000     8.0000    12.0000    -0.0005     0.0005   159.4167   -41.1662     2.9865    56.0992   250.0170     0.000
     20     1.5000    -0.0000     1.5000    41.2005    14.7000     49.920     15.000 150721.000     60.000    34.2541   -20.0773   -20.7726   120.0962    -0.1480    -3.0001   -70.4076   250.0000   300.0000    84.7083    24.6212     3.0010     1.0017    14.0000    10.0000    17.0000    10.0000    19.0000    20.0000     8.0000    12.0000    -0.0005     0.0005   159.4167   -41.1662     2.9865    55.9006   249.9510     0.000
     21     1.5000    -0.0000     1.5000    41.0006    14.7000     50.280      5.000 150721.000     60.000    34.3156   -20.0773   -20.8103   120.0962    -0.1480    -3.0001   -70.2678   250.0000   300.0000    84.4853    24.8763     3.0010     1.0017    14.0000    10.0000    17.0000    10.0000    19.0000    20.0000     8.0000    12.0000    -0.0005     0.0005   159.4167   -41.1662     2.9865    55.7007   250.0740     0.000
     22     1.5000    -0.0000     1.5000    40.7993    14.7000     50.233     14.000 150721.000     60.000    34.3774   -20.0773   -20.8484   120.0962    -0.1480    -3.0001   -70.1279   250.0000   300.0000    84.2645    25.1310     3.0010     1.0017    14.0000    10.0000    17.0000    10.0000    19.0000    20.0000     8.0000    12.0000    -0.0005     0.0005   159.4167   -41.1662     2.9865    55.4993   250.0580     0.000
     23     1.5000    -0.0000     1.5001    40.6003    14.7000     50.628     12.000 150721.000     60.000    34.4395   -20.0773   -20.8863   120.0962    -0.1480    -3.0001   -69.9878   250.0000   300.0000    84.0452    25.3828     3.0010     1.0017    14.0000    10.0000    17.0000    10.0000    19.0000    20.0000     8.0000    12.0000    -0.0005     0.0005   159.4167   -41.1662     2.9865    55.3003   249.9710     0.000
     24     1.5000    -0.0000     1.5000    40.3996    14.7000     50.683      3.000 150721.000     60.000    34.5019   -20.0773   -20.9247   120.0962    -0.1480    -3.0001   -69.8474   250.0000   300.0000    83.8279    25.6312     3.0010     1.0017    14.0000    10.0000    17.0000    10.0000    19.0000    20.0000     8.0000    12.0000    -0.0005     0.0005   159.4167   -41.1662     2.9864    55.0996   250.0050     0.000
     25     1.5000    -0.0000     1.4999    40.2005    14.7000     51.065     11.000 150721.000     60.000    34.5647   -20.0773   -20.9631   120.0962    -0.1480    -3.0001   -69.7069   250.0000   300.0000    83.6116    25.8777     3.0010     1.0017    14.0000    10.0000    17.0000    10.0000    19.0000    20.0000     8.0000    12.0000    -0.0005     0.0005   159.4167   -41.1662     2.9864    54.9005   250.0630     0.000
     26     1.5000    -0.0000     1.5000    39.9993    14.7000     50.892      8.000 150721.000     60.000    34.6278   -20.0773   -21.0020   120.0962    -0.1480    -3.0001   -69.5662   250.0000   300.0000    83.3976    26.1257     3.0010     1.0017    14.0000    10.0000    17.0000    10.0000    19.0000    20.0000     8.0000    12.0000    -0.0005     0.0005   159.4167   -41.1662     2.9864    54.6993   249.9030     0.000
     27     1.5000    -0.0000     1.5001    39.7996    14.7000     51.105     10.000 150721.000     60.000    34.6913   -20.0773   -21.0409   120.0962    -0.1480    -3.0001   -69.4252   250.0000   300.0000    83.1845    26.3710     3.0010     1.0017    14.0000    10.0000    17.0000    10.0000    19.0000    20.0000     8.0000    12.0000    -0.0005     0.0005   159.4167   -41.1662     2.9865    54.4997   250.0390     0.000
     28     1.5000    -0.0000     1.5000    39.6009    14.7000     51.277      4.000 150721.000     60.000    34.7551   -20.0773   -21.0798   120.0962    -0.1480    -3.0001   -69.2841   250.0000   300.0000    82.9735    26.6123     3.0010     1.0017    14.0000    10.0000    17.0000    10.0000    19.0000    20.0000     8.0000    12.0000    -0.0005     0.0005   159.4167   -41.1662     2.9865    54.3009   250.0180     0.000
     29     1.5000    -0.0000     1.5000    39.4000    14.7000     51.454      7.000 150721.000     60.000    34.8193   -20.0773   -21.1194   120.0962    -0.1480    -3.0001   -69.1427   250.0000   300.0000    82.7634    26.8531     3.0010     1.0017    14.0000    10.0000    17.0000    10.0000    19.0000    20.0000     8.0000    12.0000    -0.0005     0.0005   159.4167   -41.1662     2.9864    54.1000   249.9080     0.000
     30     1.5000    -0.0000     1.4999    39.1997    14.7000     51.393      9.000 150721.000     60.000    34.8839   -20.0773   -21.1590   120.0962    -0.1480    -3.0001   -69.0012   250.0000   300.0000    82.5549    27.0924     3.0010     1.0017    14.0000    10.0000    17.0000    10.0000    19.0000    20.0000     8.0000    12.0000    -0.0005     0.0005   159.4167   -41.1662     2.9864    53.8998   250.0030     0.000
     31     1.5000    -0.0000     1.5000    38.9997    14.7000     51.770     15.000 150721.000     60.000    34.9487   -20.0773   -21.1988   120.0962    -0.1480    -3.0001   -68.8594   250.0000   300.0000    82.3478    27.3326     3.0010     1.0017    14.0000    10.0000    17.0000    10.0000    19.0000    20.0000     8.0000    12.0000    -0.0005     0.0005   159.4167   -41.1662     2.9865    53.6997   250.0450     0.000
     32     1.5000    -0.0000     1.5000    38.8007    14.7000     51.748      8.000 150721.000     60.000    35.0140   -20.0773   -21.2387   120.0962    -0.1480    -3.0001   -68.7174   250.0000   300.0000    82.1419    27.5690     3.0010     1.0017    14.0000    10.0000    17.0000    10.0000    19.0000    20.0000     8.0000    12.0000    -0.0005     0.0005   159.4167   -41.1662     2.9865    53.5007   250.0870     0.000
     33     1.5000    -0.0000     1.5000    38.6005    14.7000     51.655     12.000 150721.000     60.000    35.0797   -20.0773   -21.2790   120.0962    -0.1480    -3.0001   -68.5753   250.0000   300.0000    81.9378    27.8054     3.0010     1.0017    14.0000    10.0000    17.0000    10.0000    19.0000    20.0000     8.0000    12.0000    -0.0005     0.0005   159.4167   -41.1662     2.9865    53.3005   250.0040     0.000
     34     1.5000    -0.0000     1.4999    38.3992    14.7000     51.778     10.000 150721.000     60.000    35.1456   -20.0773   -21.3198   120.0962    -0.1480    -3.0001   -68.4329   250.0000   300.0000    81.7345    28.0373     3.0010     1.0017    14.0000    10.0000    17.0000    10.0000    19.0000    20.0000     8.0000    12.0000    -0.0005     0.0005   159.4167   -41.1662     2.9864    53.0992   249.8310     0.000
     35     1.5000    -0.0000     1.5000    38.2010    14.7000     51.716      5.000 150721.000     60.000    35.2120   -20.0773   -21.3601   120.0962    -0.1480    -3.0001   -68.2903   250.0000   300.0000    81.5323    28.2712     3.0010     1.0017    14.0000    10.0000    17.0000    10.0000    19.0000    20.0000     8.0000    12.0000    -0.0005     0.0005   159.4167   -41.1662     2.9865    52.9010   250.0630     0.000
     36     1.5000    -0.0000     1.5000    37.9994    14.7000     51.685      9.000 150721.000     60.000    35.2788   -20.0773   -21.4014   120.0962    -0.1480    -3.0001   -68.1475   250.0000   300.0000    81.3314    28.5042     3.0010     1.0017    14.0000    10.0000    17.0000    10.0000    19.0000    20.0000     8.0000    12.0000    -0.0005     0.0005   159.4167   -41.1662     2.9864    52.6994   250.0550     0.000
     37     1.5000    -0.0000     1.5001    37.7995    14.7000     51.428      9.000 150721.000     60.000    35.3459   -20.0773   -21.4426   120.0962    -0.1480    -3.0001   -68.0045   250.0000   300.0000    81.1320    28.7355     3.0010     1.0017    14.0000    10.0000    17.0000    10.0000    19.0000    20.0000     8.0000    12.0000    -0.0005     0.0005   159.4167   -41.1662     2.9865    52.4995   249.9960     0.000
     38     1.5000    -0.0000     1.5001    37.6007    14.7000     51.563      7.000 150721.000     60.000    35.4134   -20.0773   -21.4838   120.0962    -0.1480    -3.0001   -67.8612   250.0000   300.0000    80.9336    28.9649     3.0010     1.0017    14.0000    10.0000    17.0000    10.0000    19.0000    20.0000     8.0000    12.0000    -0.0005     0.0005   159.4167   -41.1662     2.9865    52.3007   250.0300     0.000
     39     1.5000    -0.0000     1.5001    37.4000    14.7000     51.226      6.000 150721.000     60.000    35.4813   -20.0773   -21.5256   120.0962    -0.1480    -3.0001   -67.7178   250.0000   300.0000    80.7359    29.1932     3.0010     1.0017    14.0000    10.0000    17.0000    10.0000    19.0000    20.0000     8.0000    12.0000    -0.0005     0.0005   159.4167   -41.1662     2.9865    52.1000   249.8910     0.000
     40     1.5000    -0.0000     1.5001    37.2002    14.7000     51.235      9.000 150721.000     60.000    35.5496   -20.0773   -21.5675   120.0962    -0.1480    -3.0001   -67.5741   250.0000   300.0000    80.5399    29.4204     3.0010     1.0017    14.0000    10.0000    17.0000    10.0000    19.0000    20.0000     8.0000    12.0000    -0.0005     0.0005   159.4167   -41.1662     2.9865    51.9003   250.0120     0.000
     41     1.5000    -0.0000     1.5000    36.9998    14.7000     50.843      3.000 150721.000     60.000    35.6183   -20.0773   -21.6098   120.0962    -0.1480    -3.0001   -67.4302   250.0000   300.0000    80.3445    29.6444     3.0010     1.0017    14.0000    10.0000    17.0000    10.0000    19.0000    20.0000     8.0000    12.0000    -0.0005     0.0005   159.4167   -41.1662     2.9864    51.6999   250.0960     0.000
     42     1.5000    -0.0000     1.4999    36.7992    14.7000     50.503     10.000 150721.000     60.000    35.6874   -20.0773   -21.6523   120.0962    -0.1480    -3.0001   -67.2861   250.0000   300.0000    80.1502    29.8684     3.0010     1.0017    14.0000    10.0000    17.0000    10.0000    19.0000    20.0000     8.0000    12.0000    -0.0005     0.0005   159.4167   -41.1662     2.9864    51.4992   250.0330     0.000
     43     1.5000    -0.0000     1.5000    36.6007    14.7000     49.947     11.000 150721.000     60.000    35.7569   -20.0773   -21.6947   120.0962    -0.1480    -3.0001   -67.1418   250.0000   300.0000    79.9570    30.0936     3.0010     1.0017    14.0000    10.0000    17.0000    10.0000    19.0000    20.0000     8.0000    12.0000    -0.0005     0.0005   159.4167   -41.1662     2.9865    51.3007   250.0150     0.000
     44     1.5000    -0.0000     1.5001    36.4002    14.7000     49.861     10.000 150721.000     60.000    35.8268   -20.0773   -21.7377   120.0962    -0.1480    -3.0001   -66.9972   250.0000   300.0000    79.7649    30.3178     3.0010     1.0017    14.0000    10.0000    17.0000    10.0000    19.0000    20.0000     8.0000    12.0000    -0.0005     0.0005   159.4167   -41.1662     2.9865    51.1002   250.0140     0.000
     45     1.5000    -0.0000     1.5000    36.1995    14.7000     49.591     10.000 150721.000     60.000    35.8971   -20.0773   -21.7811   120.0962    -0.1480    -3.0001   -66.8524   250.0000   300.0000    79.5738    30.5385     3.0010     1.0017    14.0000    10.0000    17.0000    10.0000    19.0000    20.0000     8.0000    12.0000    -0.0005     0.0005   159.4167   -41.1662     2.9864    50.8995   249.9700     0.000
     46     1.5000    -0.0000     1.5000    35.9998    14.7000     49.327     10.000 150721.000     60.000    35.9679   -20.0773   -21.8245   120.0962    -0.1480    -3.0001   -66.7074   250.0000   300.0000    79.3831    30.7607     3.0010     1.0017    14.0000    10.0000    17.0000    10.0000    19.0000    20.0000     8.0000    12.0000    -0.0005     0.0005   159.4167   -41.1662     2.9865    50.6998   250.0870     0.000
     47     1.5001    -0.0000     1.5001    35.8009    14.7000     48.748     12.000 150721.000     60.000    36.0390   -20.0773   -21.8679   120.0962    -0.1480    -3.0001   -66.5622   250.0000   300.0000    79.1939    30.9806     3.0010     1.0017    14.0000    10.0000    17.0000    10.0000    19.0000    20.0000     8.0000    12.0000    -0.0005     0.0005   159.4167   -41.1662     2.9865    50.5009   250.0580     0.000
     48     1.5000    -0.0000     1.5001    35.5998    14.7000     48.198      8.000 150721.000     60.000    36.1106   -20.0773   -21.9121   120.0962    -0.1480    -3.0001   -66.4167   250.0000   300.0000    79.0050    31.2011     3.0010     1.0017    14.0000    10.0000    17.0000    10.0000    19.0000    20.0000     8.0000    12.0000    -0.0005     0.0005   159.4167   -41.1662     2.9865    50.2998   249.8750     0.000
     49     1.5000    -0.0000     1.5000    35.3997    14.7000     47.697      7.000 150721.000     60.000    36.1826   -20.0773   -21.9564   120.0962    -0.1480    -3.0001   -66.2710   250.0000   300.0000    78.8179    31.4176     3.0010     1.0017    14.0000    10.0000    17.0000    10.0000    19.0000    20.0000     8.0000    12.0000    -0.0005     0.0005   159.4167   -41.1662     2.9865    50.0997   250.0290     0.000
     50     1.5000    -0.0000     1.4999    35.2002    14.7000     47.467      7.000 150721.000     60.000    36.2550   -20.0773   -22.0008   120.0962    -0.1480    -3.0001   -66.1251   250.0000   300.0000    78.6305    31.6332     3.0010     1.0017    14.0000    10.0000    17.0000    10.0000    19.0000    20.0000     8.0000    12.0000    -0.0005     0.0005   159.4167   -41.1662     2.9864    49.9002   249.9930     0.000
     51     1.5000    -0.0000     1.4999    35.0001    14.7000     46.772      7.000 150721.000     60.000    36.3279   -20.0773   -22.0456   120.0962    -0.1480    -3.0001   -65.9790   250.0000   300.0000    78.4449    31.8493     3.0010     1.0017    14.0000    10.0000    17.0000    10.0000    19.0000    20.0000     8.0000    12.0000    -0.0005     0.0005   159.4167   -41.1662     2.9864    49.7001   250.0230     0.000
     52     1.5000    -0.0000     1.5000    34.7991    14.7000     46.489      9.000 150721.000     60.000    36.4012   -20.0773   -22.0908   120.0962    -0.1480    -3.0001   -65.8326   250.0000   300.0000    78.2597    32.0653     3.0010     1.0017    14.0000    10.0000    17.0000    10.0000    19.0000    20.0000     8.0000    12.0000    -0.0005     0.0005   159.4167   -41.1662     2.9864    49.4992   249.8930     0.000
     53     1.5000    -0.0000     1.5000    34.6002    14.7000     46.007     12.000 150721.000     60.000    36.4750   -20.0773   -22.1359   120.0962    -0.1480    -3.0001   -65.6859   250.0000   300.0000    78.0752    32.2810     3.0010     1.0017    14.0000    10.0000    17.0000    10.0000    19.0000    20.0000     8.0000    12.0000    -0.0005     0.0005   159.4167   -41.1662     2.9864    49.3003   249.8900     0.000
     54     1.5000    -0.0000     1.5000    34.4002    14.7000     45.785      8.000 150721.000     60.000    36.5492   -20.0773   -22.1815   120.0962    -0.1480    -3.0001   -65.5390   250.0000   300.0000    77.8916    32.4958     3.0010     1.0017    14.0000    10.0000    17.0000    10.0000    19.0000    20.0000     8.0000    12.0000    -0.0005     0.0005   159.4167   -41.1662     2.9865    49.1002   250.0660     0.000
     55     1.5000    -0.0000     1.5000    34.2002    14.7000     45.373      2.000 150721.000     60.000    36.6239   -20.0773   -22.2274   120.0962    -0.1480    -3.0001   -65.3920   250.0000   300.0000    77.7090    32.7092     3.0010     1.0017    14.0000    10.0000    17.0000    10.0000    19.0000    20.0000     8.0000    12.0000    -0.0005     0.0005   159.4167   -41.1662     2.9865    48.9002   250.0570     0.000
     56     1.5000    -0.0000     1.5000    33.9992    14.7000     44.695     14.000 150721.000     60.000    36.6990   -20.0773   -22.2738   120.0962    -0.1480    -3.0001   -65.2446   250.0000   300.0000    77.5265    32.9224     3.0010     1.0017    14.0000    10.0000    17.0000    10.0000    19.0000    20.0000     8.0000    12.0000    -0.0005     0.0005   159.4167   -41.1662     2.9864    48.6993   250.0620     0.000
     57     1.5000    -0.0000     1.5000    33.7998    14.7000     44.782     16.000 150721.000     60.000    36.7746   -20.0773   -22.3202   120.0962    -0.1480    -3.0001   -65.0970   250.0000   300.0000    77.3455    33.1346     3.0010     1.0017    14.0000    10.0000    17.0000    10.0000    19.0000    20.0000     8.0000    12.0000    -0.0005     0.0005   159.4167   -41.1662     2.9865    48.4998   250.0130     0.000
     58     1.5000    -0.0000     1.5000    33.6003    14.7000     44.560      8.000 150721.000     60.000    36.8507   -20.0773   -22.3668   120.0962    -0.1480    -3.0001   -64.9492   250.0000   300.0000    77.1649    33.3458     3.0010     1.0017    14.0000    10.0000    17.0000    10.0000    19.0000    20.0000     8.0000    12.0000    -0.0005     0.0005   159.4167   -41.1662     2.9865    48.3004   250.0050     0.000
     59     1.5000    -0.0000     1.5001    33.3997    14.7000     44.302     12.000 150721.000     60.000    36.9272   -20.0773   -22.4140   120.0962    -0.1480    -3.0001   -64.8011   250.0000   300.0000    76.9850    33.5576     3.0010     1.0017    14.0000    10.0000    17.0000    10.0000    19.0000    20.0000     8.0000    12.0000    -0.0005     0.0005   159.4167   -41.1662     2.9865    48.0997   250.0560     0.000
     60     1.5000    -0.0000     1.5000    33.2000    14.7000     44.222      9.000 150721.000     60.000    37.0042   -20.0773   -22.4613   120.0962    -0.1480    -3.0001   -64.6528   250.0000   300.0000    76.8055    33.7666     3.0010     1.0017    14.0000    10.0000    17.0000    10.0000    19.0000    20.0000     8.0000    12.0000    -0.0005     0.0005   159.4167   -41.1662     2.9865    47.9001   250.0120     0.000
     61     1.5001    -0.0000     1.5001    33.0007    14.7000     44.004      7.000 150721.000     60.000    37.0817   -20.0773   -22.5088   120.0962    -0.1480    -3.0001   -64.5042   250.0000   300.0000    76.6271    33.9761     3.0010     1.0017    14.0000    10.0000    17.0000    10.0000    19.0000    20.0000     8.0000    12.0000    -0.0005     0.0005   159.4167   -41.1662     2.9865    47.7007   249.9130     0.000
     62     1.5000    -0.0000     1.5001    32.7993    14.7000     43.885      9.000 150721.000     60.000    37.1597   -20.0773   -22.5571   120.0962    -0.1480    -3.0001   -64.3554   250.0000   300.0000    76.4494    34.1851     3.0010     1.0017    14.0000    10.0000    17.0000    10.0000    19.0000    20.0000     8.0000    12.0000    -0.0005     0.0005   159.4167   -41.1662     2.9865    47.4993   249.8410     0.000
     63     1.5001    -0.0000     1.5000    32.6011    14.7000     44.107     11.000 150721.000     60.000    37.2382   -20.0773   -22.6049   120.0962    -0.1480    -3.0001   -64.2063   250.0000   300.0000    76.2716    34.3924     3.0010     1.0017    14.0000    10.0000    17.0000    10.0000    19.0000    20.0000     8.0000    12.0000    -0.0005     0.0005   159.4167   -41.1662     2.9865    47.3011   249.8860     0.000
     64     1.5000    -0.0000     1.5000    32.3997    14.7000     43.589      6.000 150721.000     60.000    37.3172   -20.0773   -22.6538   120.0962    -0.1480    -3.0001   -64.0570   250.0000   300.0000    76.0953    34.5995     3.0010     1.0017    14.0000    10.0000    17.0000    10.0000    19.0000    20.0000     8.0000    12.0000    -0.0005     0.0005   159.4167   -41.1662     2.9865    47.0997   250.0030     0.000
     65     1.5001    -0.0000     1.5001    32.1998    14.7000     43.923      8.000 150721.000     60.000    37.3966   -20.0773   -22.7027   120.0962    -0.1480    -3.0001   -63.9074   250.0000   300.0000    75.9193    34.8088     3.0010     1.0017    14.0000    10.0000    17.0000    10.0000    19.0000    20.0000     8.0000    12.0000    -0.0005     0.0005   159.4167   -41.1662     2.9866    46.8998   250.0100     0.000
     66     1.5000    -0.0000     1.5000    31.9998    14.7000     43.818      8.000 150721.000     60.000    37.4766   -20.0773   -22.7519   120.0962    -0.1480    -3.0001   -63.7576   250.0000   300.0000    75.7438    35.0121     3.0010     1.0017    14.0000    10.0000    17.0000    10.0000    19.0000    20.0000     8.0000    12.0000    -0.0005     0.0005   159.4167   -41.1662     2.9865    46.6998   250.0300     0.000
     67     1.5000    -0.0000     1.5001    31.8000    14.7000     43.508      8.000 150721.000     60.000    37.5571   -20.0773   -22.8014   120.0962    -0.1480    -3.0001   -63.6075   250.0000   300.0000    75.5689    35.2190     3.0010     1.0017    14.0000    10.0000    17.0000    10.0000    19.0000    20.0000     8.0000    12.0000    -0.0005     0.0005   159.4167   -41.1662     2.9865    46.5000   250.0610     0.000
     68     1.5000    -0.0000     1.5000    31.6003    14.7000     43.466     12.000 150721.000     60.000    37.6382   -20.0773   -22.8512   120.0962    -0.1480    -3.0001   -63.4572   250.0000   300.0000    75.3945    35.4224     3.0010     1.0017    14.0000    10.0000    17.0000    10.0000    19.0000    20.0000     8.0000    12.0000    -0.0005     0.0005   159.4167   -41.1662     2.9864    46.3003   250.0570     0.000
     69     1.5000    -0.0000     1.5000    31.3997    14.7000     43.559      8.000 150721.000     60.000    37.7197   -20.0773   -22.9015   120.0962    -0.1480    -3.0001   -63.3065   250.0000   300.0000    75.2207    35.6267     3.0010     1.0017    14.0000    10.0000    17.0000    10.0000    19.0000    20.0000     8.0000    12.0000    -0.0005     0.0005   159.4167   -41.1662     2.9864    46.0997   250.0270     0.000
     70     1.5000    -0.0000     1.5000    31.2001    14.7000     43.083      1.000 150721.000     60.000    37.8018   -20.0773   -22.9519   120.0962    -0.1480    -3.0001   -63.1557   250.0000   300.0000    75.0479    35.8302     3.0010     1.0017    14.0000    10.0000    17.0000    10.0000    19.0000    20.0000     8.0000    12.0000    -0.0005     0.0005   159.4167   -41.1662     2.9864    45.9001   249.9760     0.000
     71     1.5000    -0.0000     1.5000    30.9994    14.7000     43.139      8.000 150721.000     60.000    37.8844   -20.0773   -23.0029   120.0962    -0.1480    -3.0001   -63.0045   250.0000   300.0000    74.8751    36.0342     3.0010     1.0017    14.0000    10.0000    17.0000    10.0000    19.0000    20.0000     8.0000    12.0000    -0.0005     0.0005   159.4167   -41.1662     2.9864    45.6994   250.0680     0.000
     72     1.5000    -0.0000     1.4999    30.8009    14.7000     42.764      8.000 150721.000     60.000    37.9676   -20.0773   -23.0538   120.0962    -0.1480    -3.0001   -62.8531   250.0000   300.0000    74.7030    36.2369     3.0010     1.0017    14.0000    10.0000    17.0000    10.0000    19.0000    20.0000     8.0000    12.0000    -0.0005     0.0005   159.4167   -41.1662     2.9864    45.5009   250.0450     0.000
     73     1.5000    -0.0000     1.4999    30.6005    14.7000     42.555     12.000 150721.000     60.000    38.0513   -20.0773   -23.1054   120.0962    -0.1480    -3.0001   -62.7014   250.0000   300.0000    74.5314    36.4391     3.0010     1.0017    14.0000    10.0000    17.0000    10.0000    19.0000    20.0000     8.0000    12.0000    -0.0005     0.0005   159.4167   -41.1662     2.9864    45.3005   250.0030     0.000
     74     1.5000    -0.0000     1.4999    30.3996    14.7000     42.318      7.000 150721.000     60.000    38.1356   -20.0773   -23.1575   120.0962    -0.1480    -3.0001   -62.5495   250.0000   300.0000    74.3604    36.6414     3.0010     1.0017    14.0000    10.0000    17.0000    10.0000    19.0000    20.0000     8.0000    12.0000    -0.0005     0.0005   159.4167   -41.1662     2.9863    45.0996   250.0750     0.000
     75     1.5000    -0.0000     1.5000    30.1991    14.7000     42.288     10.000 150721.000     60.000    38.2204   -20.0773   -23.2099   120.0962    -0.1480    -3.0001   -62.3973   250.0000   300.0000    74.1900    36.8438     3.0010     1.0017    14.0000    10.0000    17.0000    10.0000    19.0000    20.0000     8.0000    12.0000    -0.0005     0.0005   159.4167   -41.1662     2.9864    44.8992   250.0100     0.000
     76     1.5000    -0.0000     1.5000    30.0002    14.7000     42.196      9.000 150721.000     60.000    38.3059   -20.0773   -23.2622   120.0962    -0.1480    -3.0001   -62.2448   250.0000   300.0000    74.0199    37.0454     3.0010     1.0017    14.0000    10.0000    17.0000    10.0000    19.0000    20.0000     8.0000    12.0000    -0.0005     0.0005   159.4167   -41.1662     2.9864    44.7002   250.0290     0.000
     77     1.5000    -0.0000     1.5000    29.8008    14.7000     41.862     13.000 150721.000     60.000    38.3918   -20.0773   -23.3150   120.0962    -0.1480    -3.0001   -62.0920   250.0000   300.0000    73.8503    37.2466     3.0010     1.0017    14.0000    10.0000    17.0000    10.0000    19.0000    20.0000     8.0000    12.0000    -0.0005     0.0005   159.4167   -41.1662     2.9864    44.5008   250.0830     0.000
     78     1.5000    -0.0000     1.4999    29.5993    14.7000     41.874      4.000 150721.000     60.000    38.4784   -20.0773   -23.3687   120.0962    -0.1480    -3.0001   -61.9390   250.0000   300.0000    73.6810    37.4470     3.0010     1.0017    14.0000    10.0000    17.0000    10.0000    19.0000    20.0000     8.0000    12.0000    -0.0005     0.0005   159.4167   -41.1662     2.9864    44.2993   250.0010     0.000
     79     1.5000    -0.0000     1.5000    29.3997    14.7000     41.860      8.000 150721.000     60.000    38.5656   -20.0773   -23.4222   120.0962    -0.1480    -3.0001   -61.7856   250.0000   300.0000    73.5129    37.6470     3.0010     1.0017    14.0000    10.0000    17.0000    10.0000    19.0000    20.0000     8.0000    12.0000    -0.0005     0.0005   159.4167   -41.1662     2.9864    44.0997   250.0450     0.000
     80     1.5000    -0.0000     1.5000    29.1997    14.7000     41.759      9.000 150721.000     60.000    38.6533   -20.0773   -23.4763   120.0962    -0.1480    -3.0001   -61.6320   250.0000   300.0000    73.3443    37.8474     3.0010     1.0017    14.0000    10.0000    17.0000    10.0000    19.0000    20.0000     8.0000    12.0000    -0.0005     0.0005   159.4167   -41.1662     2.9864    43.8997   249.9960     0.000
     81     1.5000    -0.0000     1.4999    29.0005    14.7000     41.681      5.000 150721.000     60.000    38.7417   -20.0773   -23.5305   120.0962    -0.1480    -3.0001   -61.4781   250.0000   300.0000    73.1765    38.0462     3.0010     1.0017    14.0000    10.0000    17.0000    10.0000    19.0000    20.0000     8.0000    12.0000    -0.0005     0.0005   159.4167   -41.1662     2.9864    43.7005   250.0540     0.000
     82     1.5000    -0.0000     1.5000    28.8004    14.7000     41.751      7.000 150721.000     60.000    38.8306   -20.0773   -23.5853   120.0962    -0.1480    -3.0001   -61.3240   250.0000   300.0000    73.0094    38.2454     3.0010     1.0017    14.0000    10.0000    17.0000    10.0000    19.0000    20.0000     8.0000    12.0000    -0.0005     0.0005   159.4167   -41.1662     2.9864    43.5004   250.0550     0.000
     83     1.5000    -0.0000     1.5000    28.6006    14.7000     41.759     13.000 150721.000     60.000    38.9202   -20.0773   -23.6404   120.0962    -0.1480    -3.0001   -61.1695   250.0000   300.0000    72.8424    38.4456     3.0010     1.0017    14.0000    10.0000    17.0000    10.0000    19.0000    20.0000     8.0000    12.0000    -0.0005     0.0005   159.4167   -41.1662     2.9865    43.3006   250.0000     0.000
     84     1.5000    -0.0000     1.5000    28.3995    14.7000     41.562     10.000 150721.000     60.000    39.0104   -20.0773   -23.6963   120.0962    -0.1480    -3.0001   -61.0148   250.0000   300.0000    72.6759    38.6426     3.0010     1.0017    14.0000    10.0000    17.0000    10.0000    19.0000    20.0000     8.0000    12.0000    -0.0005     0.0005   159.4167   -41.1662     2.9864    43.0995   250.0700     0.000
     85     1.5000    -0.0000     1.4999    28.1994    14.7000     41.597     13.000 150721.000     60.000    39.1012   -20.0773   -23.7523   120.0962    -0.1480    -3.0001   -60.8597   250.0000   300.0000    72.5100    38.8403     3.0010     1.0017    14.0000    10.0000    17.0000    10.0000    19.0000    20.0000     8.0000    12.0000    -0.0005     0.0005   159.4167   -41.1662     2.9863    42.8994   249.9990     0.000
     86     1.5000    -0.0000     1.4999    28.0006    14.7000     41.131      3.000 150721.000     60.000    39.1927   -20.0773   -23.8084   120.0962    -0.1480    -3.0001   -60.7044   250.0000   300.0000    72.3443    39.0381     3.0010     1.0017    14.0000    10.0000    17.0000    10.0000    19.0000    20.0000     8.0000    12.0000    -0.0005     0.0005   159.4167   -41.1662     2.9864    42.7006   250.0820     0.000
     87     1.5000    -0.0000     1.5000    27.7997    14.7000     41.214      5.000 150721.000     60.000    39.2848   -20.0773   -23.8654   120.0962    -0.1480    -3.0001   -60.5487   250.0000   300.0000    72.1789    39.2363     3.0010     1.0017    14.0000    10.0000    17.0000    10.0000    19.0000    20.0000     8.0000    12.0000    -0.0005     0.0005   159.4167   -41.1662     2.9864    42.4998   250.0080     0.000
     88     1.5000    -0.0000     1.5000    27.5995    14.7000     40.879     17.000 150721.000     60.000    39.3775   -20.0773   -23.9227   120.0962    -0.1480    -3.0001   -60.3928   250.0000   300.0000    72.0143    39.4332     3.0010     1.0017    14.0000    10.0000    17.0000    10.0000    19.0000    20.0000     8.0000    12.0000    -0.0005     0.0005   159.4167   -41.1662     2.9864    42.2995   250.0180     0.000
     89     1.5000    -0.0000     1.5000    27.4003    14.7000     40.614      4.000 150721.000     60.000    39.4710   -20.0773   -23.9800   120.0962    -0.1480    -3.0001   -60.2366   250.0000   300.0000    71.8494    39.6304     3.0010     1.0017    14.0000    10.0000    17.0000    10.0000    19.0000    20.0000     8.0000    12.0000    -0.0005     0.0005   159.4167   -41.1662     2.9864    42.1003   250.0470     0.000
     90     1.5000    -0.0000     1.5000    27.1998    14.7000     40.707      5.000 150721.000     60.000    39.5651   -20.0773   -24.0382   120.0962    -0.1480    -3.0001   -60.0800   250.0000   300.0000    71.6851    39.8271     3.0010     1.0017    14.0000    10.0000    17.0000    10.0000    19.0000    20.0000     8.0000    12.0000    -0.0005     0.0005   159.4167   -41.1662     2.9864    41.8998   250.0970     0.000
     91     1.5000    -0.0000     1.5000    27.0010    14.7000     40.234      9.000 150721.000     60.000    39.6598   -20.0773   -24.0963   120.0962    -0.1480    -3.0001   -59.9232   250.0000   300.0000    71.5217    40.0241     3.0010     1.0017    14.0000    10.0000    17.0000    10.0000    19.0000    20.0000     8.0000    12.0000    -0.0005     0.0005   159.4167   -41.1662     2.9865    41.7010   250.0550     0.000
     92     1.5000    -0.0000     1.5000    26.7998    14.7000     39.870     15.000 150721.000     60.000    39.7553   -20.0773   -24.1555   120.0962    -0.1480    -3.0001   -59.7660   250.0000   300.0000    71.3584    40.2204     3.0010     1.0017    14.0000    10.0000    17.0000    10.0000    19.0000    20.0000     8.0000    12.0000    -0.0005     0.0005   159.4167   -41.1662     2.9864    41.4999   250.0070     0.000
     93     1.5000    -0.0000     1.5000    26.6000    14.7000     39.495     14.000 150721.000     60.000    39.8514   -20.0773   -24.2147   120.0962    -0.1480    -3.0001   -59.6086   250.0000   300.0000    71.1950    40.4161     3.0010     1.0017    14.0000    10.0000    17.0000    10.0000    19.0000    20.0000     8.0000    12.0000    -0.0005     0.0005   159.4167   -41.1662     2.9864    41.3000   249.8310     0.000
     94     1.5000    -0.0000     1.5000    26.3994    14.7000     39.095      6.000 150721.000     60.000    39.9483   -20.0773   -24.2747   120.0962    -0.1480    -3.0001   -59.4508   250.0000   300.0000    71.0324    40.6129     3.0010     1.0017    14.0000    10.0000    17.0000    10.0000    19.0000    20.0000     8.0000    12.0000    -0.0005     0.0005   159.4167   -41.1662     2.9865    41.0994   249.9460     0.000
     95     1.5000    -0.0000     1.5000    26.2001    14.7000     38.504     10.000 150721.000     60.000    40.0458   -20.0773   -24.3346   120.0962    -0.1480    -3.0001   -59.2927   250.0000   300.0000    70.8699    40.8080     3.0010     1.0017    14.0000    10.0000    17.0000    10.0000    19.0000    20.0000     8.0000    12.0000    -0.0005     0.0005   159.4167   -41.1662     2.9865    40.9001   250.0330     0.000
     96     1.5000    -0.0000     1.5000    26.0000    14.7000     38.456      7.000 150721.000     60.000    40.1441   -20.0773   -24.3953   120.0962    -0.1480    -3.0001   -59.1343   250.0000   300.0000    70.7079    41.0035     3.0010     1.0017    14.0000    10.0000    17.0000    10.0000    19.0000    20.0000     8.0000    12.0000    -0.0005     0.0005   159.4167   -41.1662     2.9865    40.7001   250.0470     0.000
     97     1.5001    -0.0000     1.5000    25.8005    14.7000     38.317      6.000 150721.000     60.000    40.2431   -20.0773   -24.4562   120.0962    -0.1480    -3.0001   -58.9756   250.0000   300.0000    70.5457    41.1993     3.0010     1.0017    14.0000    10.0000    17.0000    10.0000    19.0000    20.0000     8.0000    12.0000    -0.0005     0.0005   159.4167   -41.1662     2.9866    40.5005   250.0530     0.000
     98     1.5001    -0.0000     1.5001    25.6004    14.7000     37.891     16.000 150721.000     60.000    40.3428   -20.0773   -24.5178   120.0962    -0.1480    -3.0001   -58.8166   250.0000   300.0000    70.3849    41.3938     3.0010     1.0017    14.0000    10.0000    17.0000    10.0000    19.0000    20.0000     8.0000    12.0000    -0.0005     0.0005   159.4167   -41.1662     2.9865    40.3004   250.0000     0.000
     99     1.5000    -0.0000     1.5001    25.3998    14.7000     37.838      8.000 150721.000     60.000    40.4433   -20.0773   -24.5800   120.0962    -0.1480    -3.0001   -58.6572   250.0000   300.0000    70.2235    41.5887     3.0010     1.0017    14.0000    10.0000    17.0000    10.0000    19.0000    20.0000     8.0000    12.0000    -0.0005     0.0005   159.4167   -41.1662     2.9865    40.0998   250.0770     0.000
    100     1.5000    -0.0000     1.5000    25.1998    14.7000     37.689     14.000 150721.000     60.000    40.5446   -20.0773   -24.6425   120.0962    -0.1480    -3.0001   -58.4975   250.0000   300.0000    70.0625    41.7828     3.0010     1.0017    14.0000    10.0000    17.0000    10.0000    19.0000    20.0000     8.0000    12.0000    -0.0005     0.0005   159.4167   -41.1662     2.9865    39.8998   249.9330     0.000
    101     1.5001    -0.0000     1.5000    25.0005    14.7000     37.447      6.000 150721.000     60.000    40.6465   -20.0773   -24.7053   120.0962    -0.1480    -3.0001   -58.3375   250.0000   300.0000    69.9019    41.9769     3.0010     1.0017    14.0000    10.0000    17.0000    10.0000    19.0000    20.0000     8.0000    12.0000    -0.0005     0.0005   159.4167   -41.1662     2.9865    39.7005   250.0350     0.000
    102     1.5000    -0.0000     1.5000    24.7996    14.7000     37.460     11.000 150721.000     60.000    40.7493   -20.0773   -24.7690   120.0962    -0.1480    -3.0001   -58.1772   250.0000   300.0000    69.7419    42.1708     3.0010     1.0017    14.0000    10.0000    17.0000    10.0000    19.0000    20.0000     8.0000    12.0000    -0.0005     0.0005   159.4167   -41.1662     2.9865    39.4996   249.9940     0.000
    103     1.5000    -0.0000     1.5000    24.6000    14.7000     37.356      8.000 150721.000     60.000    40.8529   -20.0773   -24.8328   120.0962    -0.1480    -3.0001   -58.0165   250.0000   300.0000    69.5816    42.3647     3.0010     1.0017    14.0000    10.0000    17.0000    10.0000    19.0000    20.0000     8.0000    12.0000    -0.0005     0.0005   159.4167   -41.1662     2.9865    39.3000   250.0360     0.000
    104     1.5000    -0.0000     1.5000    24.4000    14.7000     37.423      9.000 150721.000     60.000    40.9572   -20.0773   -24.8973   120.0962    -0.1480    -3.0001   -57.8555   250.0000   300.0000    69.4221    42.5578     3.0010     1.0017    14.0000    10.0000    17.0000    10.0000    19.0000    20.0000     8.0000    12.0000    -0.0005     0.0005   159.4167   -41.1662     2.9865    39.1000   250.0830     0.000
    105     1.5000    -0.0000     1.5000    24.1997    14.7000     37.516      9.000 150721.000     60.000    41.0624   -20.0773   -24.9623   120.0962    -0.1480    -3.0001   -57.6941   250.0000   300.0000    69.2627    42.7517     3.0010     1.0017    14.0000    10.0000    17.0000    10.0000    19.0000    20.0000     8.0000    12.0000    -0.0005     0.0005   159.4167   -41.1662     2.9865    38.8997   249.8710     0.000
    106     1.5000    -0.0000     1.5000    24.0003    14.7000     37.717     11.000 150721.000     60.000    41.1683   -20.0773   -25.0276   120.0962    -0.1480    -3.0001   -57.5324   250.0000   300.0000    69.1034    42.9456     3.0010     1.0017    14.0000    10.0000    17.0000    10.0000    19.0000    20.0000     8.0000    12.0000    -0.0005     0.0005   159.4167   -41.1662     2.9865    38.7003   250.0230     0.000
    107     1.5000    -0.0000     1.5000    23.7998    14.7000     38.010     17.000 150721.000     60.000    41.2751   -20.0773   -25.0937   120.0962    -0.1480    -3.0001   -57.3704   250.0000   300.0000    68.9444    43.1395     3.0010     1.0017    14.0000    10.0000    17.0000    10.0000    19.0000    20.0000     8.0000    12.0000    -0.0005     0.0005   159.4167   -41.1662     2.9865    38.4998   250.0730     0.000
    108     1.5000    -0.0000     1.5000    23.5999    14.7000     38.090     11.000 150721.000     60.000    41.3828   -20.0773   -25.1602   120.0962    -0.1480    -3.0001   -57.2080   250.0000   300.0000    68.7854    43.3328     3.0010     1.0017    14.0000    10.0000    17.0000    10.0000    19.0000    20.0000     8.0000    12.0000    -0.0005     0.0005   159.4167   -41.1662     2.9865    38.2999   250.0720     0.000
    109     1.5000    -0.0000     1.5000    23.4002    14.7000     38.490      9.000 150721.000     60.000    41.4912   -20.0773   -25.2271   120.0962    -0.1480    -3.0001   -57.0453   250.0000   300.0000    68.6275    43.5259     3.0010     1.0017    14.0000    10.0000    17.0000    10.0000    19.0000    20.0000     8.0000    12.0000    -0.0005     0.0005   159.4167   -41.1662     2.9865    38.1002   250.0320     0.000
    110     1.5000    -0.0000     1.5000    23.1997    14.7000     38.681     11.000 150721.000     60.000    41.6006   -20.0773   -25.2949   120.0962    -0.1480    -3.0001   -56.8822   250.0000   300.0000    68.4690    43.7184     3.0010     1.0017    14.0000    10.0000    17.0000    10.0000    19.0000    20.0000     8.0000    12.0000    -0.0005     0.0005   159.4167   -41.1662     2.9865    37.8998   249.9780     0.000
    111     1.5000    -0.0000     1.5000    23.0000    14.7000     39.123     14.000 150721.000     60.000    41.7108   -20.0773   -25.3629   120.0962    -0.1480    -3.0001   -56.7188   250.0000   300.0000    68.3109    43.9117     3.0010     1.0017    14.0000    10.0000    17.0000    10.0000    19.0000    20.0000     8.0000    12.0000    -0.0005     0.0005   159.4167   -41.1662     2.9865    37.7000   249.9170     0.000
    112     1.5000    -0.0000     1.5000    22.7998    14.7000     39.461     10.000 150721.000     60.000    41.8218   -20.0773   -25.4317   120.0962    -0.1480    -3.0001   -56.5550   250.0000   300.0000    68.1536    44.1046     3.0010     1.0017    14.0000    10.0000    17.0000    10.0000    19.0000    20.0000     8.0000    12.0000    -0.0005     0.0005   159.4167   -41.1662     2.9865    37.4998   249.9410     0.000
    113     1.5001    -0.0000     1.5000    22.6010    14.7000     39.928     10.000 150721.000     60.000    41.9338   -20.0773   -25.5005   120.0962    -0.1480    -3.0001   -56.3908   250.0000   300.0000    67.9956    44.2974     3.0010     1.0017    14.0000    10.0000    17.0000    10.0000    19.0000    20.0000     8.0000    12.0000    -0.0005     0.0005   159.4167   -41.1662     2.9865    37.3010   250.0800     0.000
    114     1.5000    -0.0000     1.5000    22.4002    14.7000     40.122     12.000 150721.000     60.000    42.0467   -20.0773   -25.5705   120.0962    -0.1480    -3.0001   -56.2263   250.0000   300.0000    67.8386    44.4895     3.0010     1.0017    14.0000    10.0000    17.0000    10.0000    19.0000    20.0000     8.0000    12.0000    -0.0005     0.0005   159.4167   -41.1662     2.9864    37.1003   250.0290     0.000
    115     1.5000    -0.0000     1.4999    22.1995    14.7000     40.452     11.000 150721.000     60.000    42.1605   -20.0773   -25.6412   120.0962    -0.1480    -3.0001   -56.0614   250.0000   300.0000    67.6811    44.6808     3.0010     1.0017    14.0000    10.0000    17.0000    10.0000    19.0000    20.0000     8.0000    12.0000    -0.0005     0.0005   159.4167   -41.1662     2.9863    36.8995   250.0330     0.000
    116     1.5000    -0.0000     1.5000    21.9995    14.7000     40.629     11.000 150721.000     60.000    42.2752   -20.0773   -25.7121   120.0962    -0.1480    -3.0001   -55.8961   250.0000   300.0000    67.5245    44.8759     3.0010     1.0017    14.0000    10.0000    17.0000    10.0000    19.0000    20.0000     8.0000    12.0000    -0.0005     0.0005   159.4167   -41.1662     2.9864    36.6996   250.0620     0.000
    117     1.5000    -0.0000     1.5000    21.7998    14.7000     40.789     11.000 150721.000     60.000    42.3909   -20.0773   -25.7836   120.0962    -0.1480    -3.0001   -55.7305   250.0000   300.0000    67.3679    45.0672     3.0010     1.0017    14.0000    10.0000    17.0000    10.0000    19.0000    20.0000     8.0000    12.0000    -0.0005     0.0005   159.4167   -41.1662     2.9864    36.4998   250.0230     0.000
    118     1.5000    -0.0000     1.5000    21.6003    14.7000     40.938     10.000 150721.000     60.000    42.5075   -20.0773   -25.8556   120.0962    -0.1480    -3.0001   -55.5645   250.0000   300.0000    67.2111    45.2603     3.0010     1.0017    14.0000    10.0000    17.0000    10.0000    19.0000    20.0000     8.0000    12.0000    -0.0005     0.0005   159.4167   -41.1662     2.9864    36.3003   250.0660     0.000
    119     1.5000    -0.0000     1.5000    21.3999    14.7000     41.096     10.000 150721.000     60.000    42.6251   -20.0773   -25.9285   120.0962    -0.1480    -3.0001   -55.3981   250.0000   300.0000    67.0551    45.4527     3.0010     1.0017    14.0000    10.0000    17.0000    10.0000    19.0000    20.0000     8.0000    12.0000    -0.0005     0.0005   159.4167   -41.1662     2.9864    36.0999   250.0110     0.000
    120     1.5000    -0.0000     1.5000    21.2001    14.7000     41.202     18.000 150721.000     60.000    42.7436   -20.0773   -26.0018   120.0962    -0.1480    -3.0001   -55.2313   250.0000   300.0000    66.8989    45.6460     3.0010     1.0017    14.0000    10.0000    17.0000    10.0000    19.0000    20.0000     8.0000    12.0000    -0.0005     0.0005   159.4167   -41.1662     2.9864    35.9001   250.0680     0.000
    121     1.5000    -0.0000     1.5000    21.0001    14.7000     41.021     10.000 150721.000     60.000    42.8632   -20.0773   -26.0758   120.0962    -0.1480    -3.0001   -55.0642   250.0000   300.0000    66.7428    45.8383     3.0010     1.0017    14.0000    10.0000    17.0000    10.0000    19.0000    20.0000     8.0000    12.0000    -0.0005     0.0005   159.4167   -41.1662     2.9864    35.7001   249.9950     0.000
    122     1.5000    -0.0000     1.5000    20.7994    14.7000     41.433     12.000 150721.000     60.000    42.9838   -20.0773   -26.1507   120.0962    -0.1480    -3.0001   -54.8966   250.0000   300.0000    66.5869    46.0316     3.0010     1.0017    14.0000    10.0000    17.0000    10.0000    19.0000    20.0000     8.0000    12.0000    -0.0005     0.0005   159.4167   -41.1662     2.9864    35.4994   249.9020     0.000
    123     1.5000    -0.0000     1.5000    20.6002    14.7000     41.384      6.000 150721.000     60.000    43.1054   -20.0773   -26.2257   120.0962    -0.1480    -3.0001   -54.7287   250.0000   300.0000    66.4316    46.2247     3.0010     1.0017    14.0000    10.0000    17.0000    10.0000    19.0000    20.0000     8.0000    12.0000    -0.0005     0.0005   159.4167   -41.1662     2.9864    35.3002   249.9140     0.000
    124     1.5000    -0.0000     1.5000    20.4000    14.7000     41.339     14.000 150721.000     60.000    43.2280   -20.0773   -26.3017   120.0962    -0.1480    -3.0001   -54.5603   250.0000   300.0000    66.2760    46.4176     3.0010     1.0017    14.0000    10.0000    17.0000    10.0000    19.0000    20.0000     8.0000    12.0000    -0.0005     0.0005   159.4167   -41.1662     2.9864    35.1000   249.8720     0.000
    125     1.5000    -0.0000     1.5000    20.2000    14.7000     41.643      6.000 150721.000     60.000    43.3517   -20.0773   -26.3783   120.0962    -0.1480    -3.0001   -54.3916   250.0000   300.0000    66.1209    46.6111     3.0010     1.0017    14.0000    10.0000    17.0000    10.0000    19.0000    20.0000     8.0000    12.0000    -0.0005     0.0005   159.4167   -41.1662     2.9865    34.9000   249.9360     0.000
    126     1.5000    -0.0000     1.5000    19.9999    14.7000     41.544     10.000 150721.000     60.000    43.4765   -20.0773   -26.4556   120.0962    -0.1480    -3.0001   -54.2224   250.0000   300.0000    65.9656    46.8042     3.0010     1.0017    14.0000    10.0000    17.0000    10.0000    19.0000    20.0000     8.0000    12.0000    -0.0005     0.0005   159.4167   -41.1662     2.9865    34.7000   249.8510     0.000
    127     1.5000    -0.0000     1.5000    19.7999    14.7000     42.026      8.000 150721.000     60.000    43.6023   -20.0773   -26.5336   120.0962    -0.1480    -3.0001   -54.0529   250.0000   300.0000    65.8107    46.9977     3.0010     1.0017    14.0000    10.0000    17.0000    10.0000    19.0000    20.0000     8.0000    12.0000    -0.0005     0.0005   159.4167   -41.1662     2.9865    34.4999   249.9370     0.000
    128     1.5000    -0.0000     1.5000    19.5998    14.7000     42.257      5.000 150721.000     60.000    43.7292   -20.0773   -26.6123   120.0962    -0.1480    -3.0001   -53.8830   250.0000   300.0000    65.6559    47.1914     3.0010     1.0017    14.0000    10.0000    17.0000    10.0000    19.0000    20.0000     8.0000    12.0000    -0.0005     0.0005   159.4167   -41.1662     2.9865    34.2998   249.8590     0.000
    129     1.5000    -0.0000     1.5000    19.4000    14.7000     42.666      7.000 150721.000     60.000    43.8573   -20.0773   -26.6916   120.0962    -0.1480    -3.0001   -53.7126   250.0000   300.0000    65.5012    47.3840     3.0010     1.0017    14.0000    10.0000    17.0000    10.0000    19.0000    20.0000     8.0000    12.0000    -0.0005     0.0005   159.4167   -41.1662     2.9865    34.1000   249.8730     0.000
    130     1.5000    -0.0000     1.5000    19.1999    14.7000     42.803      8.000 150721.000     60.000    43.9865   -20.0773   -26.7717   120.0962    -0.1480    -3.0001   -53.5418   250.0000   300.0000    65.3468    47.5775     3.0010     1.0017    14.0000    10.0000    17.0000    10.0000    19.0000    20.0000     8.0000    12.0000    -0.0005     0.0005   159.4167   -41.1662     2.9865    33.8999   249.9260     0.000
    131     1.5001    -0.0000     1.5000    19.0006    14.7000     42.967     15.000 150721.000     60.000    44.1168   -20.0773   -26.8523   120.0962    -0.1480    -3.0001   -53.3706   250.0000   300.0000    65.1926    47.7710     3.0010     1.0017    14.0000    10.0000    17.0000    10.0000    19.0000    20.0000     8.0000    12.0000    -0.0005     0.0005   159.4167   -41.1662     2.9865    33.7006   249.8510     0.000
    132     1.5000    -0.0000     1.5000    18.7993    14.7000     43.185      6.000 150721.000     60.000    44.2483   -20.0773   -26.9343   120.0962    -0.1480    -3.0001   -53.1990   250.0000   300.0000    65.0380    47.9641     3.0010     1.0017    14.0000    10.0000    17.0000    10.0000    19.0000    20.0000     8.0000    12.0000    -0.0005     0.0005   159.4167   -41.1662     2.9865    33.4993   249.9000     0.000
    133     1.5000    -0.0000     1.5000    18.5999    14.7000     43.531      7.000 150721.000     60.000    44.3810   -20.0773   -27.0164   120.0962    -0.1480    -3.0001   -53.0269   250.0000   300.0000    64.8840    48.1576     3.0010     1.0017    14.0000    10.0000    17.0000    10.0000    19.0000    20.0000     8.0000    12.0000    -0.0005     0.0005   159.4167   -41.1662     2.9865    33.2999   249.9410     0.000
    134     1.5001    -0.0000     1.5000    18.4008    14.7000     43.764     12.000 150721.000     60.000    44.5149   -20.0773   -27.0991   120.0962    -0.1480    -3.0001   -52.8544   250.0000   300.0000    64.7299    48.3507     3.0010     1.0017    14.0000    10.0000    17.0000    10.0000    19.0000    20.0000     8.0000    12.0000    -0.0005     0.0005   159.4167   -41.1662     2.9865    33.1008   249.8580     0.000
    135     1.5000    -0.0000     1.5000    18.1994    14.7000     43.698     13.000 150721.000     60.000    44.6500   -20.0773   -27.1835   120.0962    -0.1480    -3.0001   -52.6815   250.0000   300.0000    64.5759    48.5442     3.0010     1.0017    14.0000    10.0000    17.0000    10.0000    19.0000    20.0000     8.0000    12.0000    -0.0005     0.0005   159.4167   -41.1662     2.9864    32.8994   249.9930     0.000
    136     1.5000    -0.0000     1.5000    18.0001    14.7000     44.091      9.000 150721.000     60.000    44.7863   -20.0773   -27.2678   120.0962    -0.1480    -3.0001   -52.5081   250.0000   300.0000    64.4224    48.7387     3.0010     1.0017    14.0000    10.0000    17.0000    10.0000    19.0000    20.0000     8.0000    12.0000    -0.0005     0.0005   159.4167   -41.1662     2.9865    32.7001   250.0630     0.000
    137     1.5001    -0.0000     1.5000    17.8003    14.7000     44.399      5.000 150721.000     60.000    44.9239   -20.0773   -27.3531   120.0962    -0.1480    -3.0001   -52.3343   250.0000   300.0000    64.2686    48.9334     3.0010     1.0017    14.0000    10.0000    17.0000    10.0000    19.0000    20.0000     8.0000    12.0000    -0.0005     0.0005   159.4167   -41.1662     2.9865    32.5003   250.0900     0.000
    138     1.5000    -0.0000     1.5000    17.5997    14.7000     44.488      9.000 150721.000     60.000    45.0627   -20.0773   -27.4396   120.0962    -0.1480    -3.0001   -52.1600   250.0000   300.0000    64.1150    49.1271     3.0010     1.0017    14.0000    10.0000    17.0000    10.0000    19.0000    20.0000     8.0000    12.0000    -0.0005     0.0005   159.4167   -41.1662     2.9865    32.2997   250.0370     0.000
    139     1.5001    -0.0000     1.5000    17.3999    14.7000     44.769      8.000 150721.000     60.000    45.2029   -20.0773   -27.5265   120.0962    -0.1480    -3.0001   -51.9853   250.0000   300.0000    63.9612    49.3216     3.0010     1.0017    14.0000    10.0000    17.0000    10.0000    19.0000    20.0000     8.0000    12.0000    -0.0005     0.0005   159.4167   -41.1662     2.9865    32.1000   250.0050     0.000
    140     1.5001    -0.0000     1.5000    17.2006    14.7000     44.895     10.000 150721.000     60.000    45.3444   -20.0773   -27.6140   120.0962    -0.1480    -3.0001   -51.8102   250.0000   300.0000    63.8084    49.5153     3.0010     1.0017    14.0000    10.0000    17.0000    10.0000    19.0000    20.0000     8.0000    12.0000    -0.0005     0.0005   159.4167   -41.1662     2.9865    31.9006   250.0710     0.000
    141     1.5000    -0.0000     1.5000    16.9999    14.7000     45.331      5.000 150721.000     60.000    45.4872   -20.0773   -27.7030   120.0962    -0.1480    -3.0001   -51.6345   250.0000   300.0000    63.6550    49.7094     3.0010     1.0017    14.0000    10.0000    17.0000    10.0000    19.0000    20.0000     8.0000    12.0000    -0.0005     0.0005   159.4167   -41.1662     2.9865    31.6999   250.0870     0.000
    142     1.5000    -0.0000     1.5000    16.7997    14.7000     45.243     14.000 150721.000     60.000    45.6314   -20.0773   -27.7927   120.0962    -0.1480    -3.0001   -51.4584   250.0000   300.0000    63.5014    49.9046     3.0010     1.0017    14.0000    10.0000    17.0000    10.0000    19.0000    20.0000     8.0000    12.0000    -0.0005     0.0005   159.4167   -41.1662     2.9865    31.4997   250.0860     0.000
    143     1.5000    -0.0000     1.5000    16.6003    14.7000     45.664      7.000 150721.000     60.000    45.7769   -20.0773   -27.8829   120.0962    -0.1480    -3.0001   -51.2818   250.0000   300.0000    63.3489    50.0993     3.0010     1.0017    14.0000    10.0000    17.0000    10.0000    19.0000    20.0000     8.0000    12.0000    -0.0005     0.0005   159.4167   -41.1662     2.9865    31.3003   249.8800     0.000
    144     1.5000    -0.0000     1.5000    16.3998    14.7000     45.507     14.000 150721.000     60.000    45.9239   -20.0773   -27.9744   120.0962    -0.1480    -3.0001   -51.1048   250.0000   300.0000    63.1954    50.2936     3.0010     1.0017    14.0000    10.0000    17.0000    10.0000    19.0000    20.0000     8.0000    12.0000    -0.0005     0.0005   159.4167   -41.1662     2.9864    31.0998   249.8690     0.000
    145     1.5000    -0.0000     1.5000    16.2001    14.7000     45.718     12.000 150721.000     60.000    46.0723   -20.0773   -28.0665   120.0962    -0.1480    -3.0001   -50.9273   250.0000   300.0000    63.0427    50.4881     3.0010     1.0017    14.0000    10.0000    17.0000    10.0000    19.0000    20.0000     8.0000    12.0000    -0.0005     0.0005   159.4167   -41.1662     2.9864    30.9001   249.9390     0.000
    146     1.5000    -0.0000     1.5000    15.9998    14.7000     45.421      5.000 150721.000     60.000    46.2221   -20.0773   -28.1598   120.0962    -0.1480    -3.0001   -50.7492   250.0000   300.0000    62.8896    50.6851     3.0010     1.0017    14.0000    10.0000    17.0000    10.0000    19.0000    20.0000     8.0000    12.0000    -0.0005     0.0005   159.4167   -41.1662     2.9864    30.6998   250.0300     0.000
    147     1.5000    -0.0000     1.5000    15.8003    14.7000     45.815     10.000 150721.000     60.000    46.3734   -20.0773   -28.2537   120.0962    -0.1480    -3.0001   -50.5708   250.0000   300.0000    62.7369    50.8806     3.0010     1.0017    14.0000    10.0000    17.0000    10.0000    19.0000    20.0000     8.0000    12.0000    -0.0005     0.0005   159.4167   -41.1662     2.9864    30.5003   250.0790     0.000
    148     1.5000    -0.0000     1.5000    15.6001    14.7000     45.893      7.000 150721.000     60.000    46.5262   -20.0773   -28.3488   120.0962    -0.1480    -3.0001   -50.3918   250.0000   300.0000    62.5844    51.0767     3.0010     1.0017    14.0000    10.0000    17.0000    10.0000    19.0000    20.0000     8.0000    12.0000    -0.0005     0.0005   159.4167   -41.1662     2.9864    30.3001   250.0470     0.000
    149     1.5000    -0.0000     1.5000    15.4001    14.7000     46.316     13.000 150721.000     60.000    46.6805   -20.0773   -28.4448   120.0962    -0.1480    -3.0001   -50.2122   250.0000   300.0000    62.4314    51.2725     3.0010     1.0017    14.0000    10.0000    17.0000    10.0000    19.0000    20.0000     8.0000    12.0000    -0.0005     0.0005   159.4167   -41.1662     2.9864    30.1001   250.0850     0.000
    150     1.5000    -0.0000     1.5000    15.1997    14.7000     46.591     14.000 150721.000     60.000    46.8364   -20.0773   -28.5420   120.0962    -0.1480    -3.0001   -50.0322   250.0000   300.0000    62.2791    51.4694     3.0010     1.0017    14.0000    10.0000    17.0000    10.0000    19.0000    20.0000     8.0000    12.0000    -0.0005     0.0005   159.4167   -41.1662     2.9864    29.8998   249.9270     0.000
    151     1.5000    -0.0000     1.5000    15.0002    14.7000     46.613      9.000 150721.000     60.000    46.9938   -20.0773   -28.6397   120.0962    -0.1480    -3.0001   -49.8518   250.0000   300.0000    62.1260    51.6664     3.0010     1.0017    14.0000    10.0000    17.0000    10.0000    19.0000    20.0000     8.0000    12.0000    -0.0005     0.0005   159.4167   -41.1662     2.9864    29.7002   249.8570     0.000
    152     1.5000    -0.0000     1.5000    14.7997    14.7000     46.671      9.000 150721.000     60.000    47.1528   -20.0773   -28.7390   120.0962    -0.1480    -3.0001   -49.6707   250.0000   300.0000    61.9744    51.8631     3.0010     1.0017    14.0000    10.0000    17.0000    10.0000    19.0000    20.0000     8.0000    12.0000    -0.0005     0.0005   159.4167   -41.1662     2.9864    29.4997   250.0390     0.000
    153     1.5000    -0.0000     1.4999    14.6002    14.7000     46.554      9.000 150721.000     60.000    47.3135   -20.0773   -28.8387   120.0962    -0.1480    -3.0001   -49.4892   250.0000   300.0000    61.8211    52.0601     3.0010     1.0017    14.0000    10.0000    17.0000    10.0000    19.0000    20.0000     8.0000    12.0000    -0.0005     0.0005   159.4167   -41.1662     2.9864    29.3003   250.0170     0.000
    154     1.5000    -0.0000     1.5000    14.4000    14.7000     46.025     10.000 150721.000     60.000    47.4758   -20.0773   -28.9400   120.0962    -0.1480    -3.0001   -49.3071   250.0000   300.0000    61.6691    52.2584     3.0010     1.0017    14.0000    10.0000    17.0000    10.0000    19.0000    20.0000     8.0000    12.0000    -0.0005     0.0005   159.4167   -41.1662     2.9864    29.1000   249.9840     0.000
    155     1.5000    -0.0000     1.5000    14.1998    14.7000     45.727     16.000 150721.000     60.000    47.6398   -20.0773   -29.0422   120.0962    -0.1480    -3.0001   -49.1245   250.0000   300.0000    61.5164    52.4560     3.0010     1.0017    14.0000    10.0000    17.0000    10.0000    19.0000    20.0000     8.0000    12.0000    -0.0005     0.0005   159.4167   -41.1662     2.9864    28.8998   250.0150     0.000
    156     1.5000    -0.0000     1.5000    13.9999    14.7000     44.684      8.000 150721.000     60.000    47.8055   -20.0773   -29.1454   120.0962    -0.1480    -3.0001   -48.9414   250.0000   300.0000    61.3644    52.6558     3.0010     1.0017    14.0000    10.0000    17.0000    10.0000    19.0000    20.0000     8.0000    12.0000    -0.0005     0.0005   159.4167   -41.1662     2.9864    28.6999   249.8640     0.000
    157     1.5000    -0.0000     1.5000    13.8001    14.7000     44.311      9.000 150721.000     60.000    47.9729   -20.0773   -29.2497   120.0962    -0.1480    -3.0001   -48.7577   250.0000   300.0000    61.2120    52.8550     3.0010     1.0017    14.0000    10.0000    17.0000    10.0000    19.0000    20.0000     8.0000    12.0000    -0.0005     0.0005   159.4167   -41.1662     2.9865    28.5001   249.9410     0.000
    158     1.5000    -0.0000     1.5000    13.6000    14.7000     43.992      5.000 150721.000     60.000    48.1422   -20.0773   -29.3552   120.0962    -0.1480    -3.0001   -48.5734   250.0000   300.0000    61.0598    53.0529     3.0010     1.0017    14.0000    10.0000    17.0000    10.0000    19.0000    20.0000     8.0000    12.0000    -0.0005     0.0005   159.4167   -41.1662     2.9864    28.3000   249.9260     0.000
    159     1.5000    -0.0000     1.5000    13.4000    14.7000     43.774     11.000 150721.000     60.000    48.3132   -20.0773   -29.4618   120.0962    -0.1480    -3.0001   -48.3886   250.0000   300.0000    60.9074    53.2519     3.0010     1.0017    14.0000    10.0000    17.0000    10.0000    19.0000    20.0000     8.0000    12.0000    -0.0005     0.0005   159.4167   -41.1662     2.9864    28.1000   250.0100     0.000
    160     1.5000    -0.0000     1.5000    13.1999    14.7000     43.709      9.000 150721.000     60.000    48.4860   -20.0773   -29.5697   120.0962    -0.1480    -3.0001   -48.2033   250.0000   300.0000    60.7553    53.4523     3.0010     1.0017    14.0000    10.0000    17.0000    10.0000    19.0000    20.0000     8.0000    12.0000    -0.0005     0.0005   159.4167   -41.1662     2.9864    27.8999   250.0420     0.000
    161     1.5000    -0.0000     1.5000    13.0001    14.7000     44.039      9.000 150721.000     60.000    48.6608   -20.0773   -29.6786   120.0962    -0.1480    -3.0001   -48.0174   250.0000   300.0000    60.6029    53.6519     3.0010     1.0017    14.0000    10.0000    17.0000    10.0000    19.0000    20.0000     8.0000    12.0000    -0.0005     0.0005   159.4167   -41.1662     2.9864    27.7001   250.0940     0.000
    162     1.5000    -0.0000     1.5000    12.8000    14.7000     44.864     15.000 150721.000     60.000    48.8374   -20.0773   -29.7889   120.0962    -0.1480    -3.0001   -47.8309   250.0000   300.0000    60.4506    53.8525     3.0010     1.0017    14.0000    10.0000    17.0000    10.0000    19.0000    20.0000     8.0000    12.0000    -0.0005     0.0005   159.4167   -41.1662     2.9864    27.5000   250.0600     0.000
    163     1.5000    -0.0000     1.5000    12.6001    14.7000     45.491     10.000 150721.000     60.000    49.0160   -20.0773   -29.9003   120.0962    -0.1480    -3.0001   -47.6438   250.0000   300.0000    60.2989    54.0531     3.0010     1.0017    14.0000    10.0000    17.0000    10.0000    19.0000    20.0000     8.0000    12.0000    -0.0005     0.0005   159.4167   -41.1662     2.9864    27.3001   249.9990     0.000
    164     1.5000    -0.0000     1.5000    12.4000    14.7000     46.106     14.000 150721.000     60.000    49.1965   -20.0773   -30.0130   120.0962    -0.1480    -3.0001   -47.4562   250.0000   300.0000    60.1461    54.2548     3.0010     1.0017    14.0000    10.0000    17.0000    10.0000    19.0000    20.0000     8.0000    12.0000    -0.0005     0.0005   159.4167   -41.1662     2.9864    27.1001   250.0150     0.000
    165     1.5000    -0.0000     1.5000    12.2000    14.7000     46.676     10.000 150721.000     60.000    49.3790   -20.0773   -30.1270   120.0962    -0.1480    -3.0001   -47.2680   250.0000   300.0000    59.9946    54.4574     3.0010     1.0017    14.0000    10.0000    17.0000    10.0000    19.0000    20.0000     8.0000    12.0000    -0.0005     0.0005   159.4167   -41.1662     2.9864    26.9000   250.0920     0.000
    166     1.5000    -0.0000     1.5000    11.9999    14.7000     47.113     11.000 150721.000     60.000    49.5636   -20.0773   -30.2424   120.0962    -0.1480    -3.0001   -47.0791   250.0000   300.0000    59.8419    54.6588     3.0010     1.0017    14.0000    10.0000    17.0000    10.0000    19.0000    20.0000     8.0000    12.0000    -0.0005     0.0005   159.4167   -41.1662     2.9864    26.6999   250.0090     0.000
    167     1.5000    -0.0000     1.5000    11.7999    14.7000     47.209     12.000 150721.000     60.000    49.7503   -20.0773   -30.3590   120.0962    -0.1480    -3.0001   -46.8897   250.0000   300.0000    59.6901    54.8619     3.0010     1.0017    14.0000    10.0000    17.0000    10.0000    19.0000    20.0000     8.0000    12.0000    -0.0005     0.0005   159.4167   -41.1662     2.9864    26.4999   249.9160     0.000
    168     1.5000    -0.0000     1.5000    11.6001    14.7000     47.080      9.000 150721.000     60.000    49.9392   -20.0773   -30.4769   120.0962    -0.1480    -3.0001   -46.6996   250.0000   300.0000    59.5378    55.0647     3.0010     1.0017    14.0000    10.0000    17.0000    10.0000    19.0000    20.0000     8.0000    12.0000    -0.0005     0.0005   159.4167   -41.1662     2.9864    26.3001   250.1050     0.000
    169     1.5000    -0.0000     1.5000    11.4002    14.7000     46.782     10.000 150721.000     60.000    50.1301   -20.0773   -30.5963   120.0962    -0.1480    -3.0001   -46.5090   250.0000   300.0000    59.3854    55.2676     3.0010     1.0017    14.0000    10.0000    17.0000    10.0000    19.0000    20.0000     8.0000    12.0000    -0.0005     0.0005   159.4167   -41.1662     2.9864    26.1002   250.0650     0.000
    170     1.5000    -0.0000     1.5000    11.2001    14.7000     46.884     14.000 150721.000     60.000    50.3233   -20.0773   -30.7171   120.0962    -0.1480    -3.0001   -46.3176   250.0000   300.0000    59.2339    55.4718     3.0010     1.0017    14.0000    10.0000    17.0000    10.0000    19.0000    20.0000     8.0000    12.0000    -0.0005     0.0005   159.4167   -41.1662     2.9864    25.9001   250.0840     0.000
    171     1.5000    -0.0000     1.5000    10.9997    14.7000     46.372      5.000 150721.000     60.000    50.5187   -20.0773   -30.8396   120.0962    -0.1480    -3.0001   -46.1257   250.0000   300.0000    59.0808    55.6763     3.0010     1.0017    14.0000    10.0000    17.0000    10.0000    19.0000    20.0000     8.0000    12.0000    -0.0005     0.0005   159.4167   -41.1662     2.9864    25.6997   249.9650     0.000
    172     1.5000    -0.0000     1.5000    10.8001    14.7000     46.179      9.000 150721.000     60.000    50.7164   -20.0773   -30.9631   120.0962    -0.1480    -3.0001   -45.9331   250.0000   300.0000    58.9293    55.8814     3.0010     1.0017    14.0000    10.0000    17.0000    10.0000    19.0000    20.0000     8.0000    12.0000    -0.0005     0.0005   159.4167   -41.1662     2.9864    25.5001   249.9110     0.000
    173     1.5000    -0.0000     1.5000    10.5997    14.7000     45.973     15.000 150721.000     60.000    50.9165   -20.0773   -31.0886   120.0962    -0.1480    -3.0001   -45.7399   250.0000   300.0000    58.7764    56.0865     3.0010     1.0017    14.0000    10.0000    17.0000    10.0000    19.0000    20.0000     8.0000    12.0000    -0.0005     0.0005   159.4167   -41.1662     2.9864    25.2997   250.0760     0.000
    174     1.5000    -0.0000     1.5000    10.4003    14.7000     46.027      7.000 150721.000     60.000    51.1190   -20.0773   -31.2149   120.0962    -0.1480    -3.0001   -45.5460   250.0000   300.0000    58.6247    56.2926     3.0010     1.0017    14.0000    10.0000    17.0000    10.0000    19.0000    20.0000     8.0000    12.0000    -0.0005     0.0005   159.4167   -41.1662     2.9864    25.1003   250.0440     0.000
    175     1.5000    -0.0000     1.5000    10.2002    14.7000     46.231     10.000 150721.000     60.000    51.3239   -20.0773   -31.3433   120.0962    -0.1480    -3.0001   -45.3514   250.0000   300.0000    58.4724    56.5011     3.0010     1.0017    14.0000    10.0000    17.0000    10.0000    19.0000    20.0000     8.0000    12.0000    -0.0005     0.0005   159.4167   -41.1662     2.9865    24.9002   249.9970     0.000
    176     1.5000    -0.0000     1.5000     9.9999    14.7000     46.990     10.000 150721.000     60.000    51.5312   -20.0773   -31.4734   120.0962    -0.1480    -3.0001   -45.1562   250.0000   300.0000    58.3197    56.7088     3.0010     1.0017    14.0000    10.0000    17.0000    10.0000    19.0000    20.0000     8.0000    12.0000    -0.0005     0.0005   159.4167   -41.1662     2.9865    24.6999   250.0310     0.000
    177     1.5000    -0.0000     1.5000     9.8000    14.7000     47.630      5.000 150721.000     60.000    51.7411   -20.0773   -31.6049   120.0962    -0.1480    -3.0001   -44.9603   250.0000   300.0000    58.1675    56.9164     3.0010     1.0017    14.0000    10.0000    17.0000    10.0000    19.0000    20.0000     8.0000    12.0000    -0.0005     0.0005   159.4167   -41.1662     2.9865    24.5000   249.8770     0.000
    178     1.5000    -0.0000     1.5000     9.5998    14.7000     48.245     10.000 150721.000     60.000    51.9536   -20.0773   -31.7383   120.0962    -0.1480    -3.0001   -44.7637   250.0000   300.0000    58.0153    57.1245     3.0010     1.0017    14.0000    10.0000    17.0000    10.0000    19.0000    20.0000     8.0000    12.0000    -0.0005     0.0005   159.4167   -41.1662     2.9865    24.2998   249.9150     0.000
    179     1.5001    -0.0000     1.5000     9.4003    14.7000     48.738      6.000 150721.000     60.000    52.1687   -20.0773   -31.8729   120.0962    -0.1480    -3.0001   -44.5664   250.0000   300.0000    57.8627    57.3334     3.0010     1.0017    14.0000    10.0000    17.0000    10.0000    19.0000    20.0000     8.0000    12.0000    -0.0005     0.0005   159.4167   -41.1662     2.9865    24.1003   249.9980     0.000
    180     1.5000    -0.0000     1.5000     9.1999    14.7000     49.114      6.000 150721.000     60.000    52.3866   -20.0773   -32.0098   120.0962    -0.1480    -3.0001   -44.3684   250.0000   300.0000    57.7103    57.5418     3.0010     1.0017    14.0000    10.0000    17.0000    10.0000    19.0000    20.0000     8.0000    12.0000    -0.0005     0.0005   159.4167   -41.1662     2.9864    23.8999   250.0700     0.000
    181     1.5000    -0.0000     1.5000     8.9998    14.7000     48.872     10.000 150721.000     60.000    52.6071   -20.0773   -32.1482   120.0962    -0.1480    -3.0001   -44.1697   250.0000   300.0000    57.5577    57.7527     3.0010     1.0017    14.0000    10.0000    17.0000    10.0000    19.0000    20.0000     8.0000    12.0000    -0.0005     0.0005   159.4167   -41.1662     2.9865    23.6998   249.9150     0.000
    182     1.5000    -0.0000     1.5000     8.8000    14.7000     48.028      7.000 150721.000     60.000    52.8305   -20.0773   -32.2884   120.0962    -0.1480    -3.0001   -43.9703   250.0000   300.0000    57.4051    57.9637     3.0010     1.0017    14.0000    10.0000    17.0000    10.0000    19.0000    20.0000     8.0000    12.0000    -0.0005     0.0005   159.4167   -41.1662     2.9865    23.5000   250.1040     0.000
    183     1.5001    -0.0000     1.5000     8.6000    14.7000     46.820     15.000 150721.000     60.000    53.0568   -20.0773   -32.4304   120.0962    -0.1480    -3.0001   -43.7701   250.0000   300.0000    57.2527    58.1759     3.0010     1.0017    14.0000    10.0000    17.0000    10.0000    19.0000    20.0000     8.0000    12.0000    -0.0005     0.0005   159.4167   -41.1662     2.9865    23.3001   250.0340     0.000
    184     1.5000    -0.0000     1.5000     8.3999    14.7000     45.295     11.000 150721.000     60.000    53.2860   -20.0773   -32.5745   120.0962    -0.1480    -3.0001   -43.5692   250.0000   300.0000    57.0999    58.3869     3.0010     1.0017    14.0000    10.0000    17.0000    10.0000    19.0000    20.0000     8.0000    12.0000    -0.0005     0.0005   159.4167   -41.1662     2.9865    23.0999   250.0840     0.000
    185     1.5001    -0.0000     1.5000     8.2000    14.7000     44.293     20.000 150721.000     60.000    53.5181   -20.0773   -32.7203   120.0962    -0.1480    -3.0001   -43.3675   250.0000   300.0000    56.9474    58.6011     3.0010     1.0017    14.0000    10.0000    17.0000    10.0000    19.0000    20.0000     8.0000    12.0000    -0.0005     0.0005   159.4167   -41.1662     2.9865    22.9000   249.9880     0.000
    186     1.5001    -0.0000     1.5000     7.9999    14.7000     43.354     11.000 150721.000     60.000    53.7534   -20.0773   -32.8683   120.0962    -0.1480    -3.0001   -43.1651   250.0000   300.0000    56.7945    58.8139     3.0010     1.0017    14.0000    10.0000    17.0000    10.0000    19.0000    20.0000     8.0000    12.0000    -0.0005     0.0005   159.4167   -41.1662     2.9865    22.6999   249.9060     0.000
# Sum of Counts = 2581
# Center of Mass = 31.755068+/-0.916694
# Full Width Half-Maximum = 24.667325+/-0.565489
# 5:25:22 PM  9/21/2024   scan completed.
