# scan = 74
# date = 2/28/2025
# time = 6:37:30 PM
# proposal = 34247
# experiment = Investigating the Transverse Field Ising Ferromagnet HoV6Sn6: A Rare Example of a Ferromagnetic Metal with a Quantum Critical Point?
# experiment_number = 1047
# command = scan sgu 2 1 0.5
# builtin_command = scan sgu 2 1 0.5
# users = Aashish Sapkota, Benjamin Ueland, Dhurba Jaishi, Fei Li, Rob McQueeney, Tianxiong Han, Bing Li
# local_contact = A. Aczel
# scan_title = alignment 2 0 0
# monochromator = PG002
# analyzer = Pg002
# sense = +-+
# collimation = 40-40-40-80
# samplename = HoV6Sn6 crystal
# sampletype = crystal
# samplemosaic = 30.000000
# latticeconstants = 5.497746,5.497746,9.165351,90.000000,90.000000,120.000000
# ubmatrix = 0.102310,0.057638,0.095207,0.183427,0.088798,-0.053120,-0.000706,0.181401,-0.004248
# mode = 0
# plane_normal = 0.035638,-0.016030,0.999236
# ubconf = UB28Feb2025_62352PM.ini
# preset_type = normal 
# preset_channel = time
# preset_value = 1.000000
# def_x = sgu
# def_y = detector
# col_headers = 
#   Pt.        sgu       time   detector    monitor        mcu         m2      mag_i         s1         s2        sgl   slitb_bt   slitb_lf   slitb_rt   slitb_tp   slita_bt   slita_lf   slita_rt   slita_tp        stl        stu         a1         a2          q          h          k          l         ei         ef          e        vti     sample       temp persistent_field dr_tsample    dr_temp
      1     1.9997      1.000    176.000  21085.000      1.092    41.5367    -0.0000   -90.5076   -59.8899    -2.0325    25.0000     6.0000     6.0000    25.0000    25.0000     9.0000     7.0000    22.0000    -3.9965     0.0020    20.7320    41.4625     2.6386     2.0486    -0.1022     0.0212    14.4503    14.4998    -0.0495     1.7036     0.0000     1.0000    -0.0003     0.0607     0.050
      2     1.5020      1.000    180.000  21255.000      1.101    41.5367    -0.0000   -90.5077   -59.8899    -2.0325    25.0000     6.0000     6.0000    25.0000    25.0000     9.0000     7.0000    22.0000    -3.9965     0.0020    20.7321    41.4624     2.6386     2.0405    -0.0847     0.0194    14.4503    14.4998    -0.0495     1.7035     0.0000     1.0000    -0.0003     0.0607     0.050
      3     1.0000      1.000    215.000  21240.000      1.101    41.5367    -0.0000   -90.5077   -59.8899    -2.0325    25.0000     6.0000     6.0000    25.0000    25.0000     9.0000     7.0000    22.0000    -3.9965     0.0020    20.7320    41.4624     2.6386     2.0322    -0.0671     0.0176    14.4503    14.4998    -0.0495     1.7035     0.0000     1.0000    -0.0003     0.0607     0.050
# Sum of Counts = 571
# Center of Mass = 1.466387+/-0.088484
# Full Width Half-Maximum = 0.824548+/-0.106876
# 6:37:40 PM  2/28/2025   scan completed.
