# scan = 353
# date = 3/2/2025
# time = 1:49:35 PM
# proposal = 34247
# experiment = Investigating the Transverse Field Ising Ferromagnet HoV6Sn6: A Rare Example of a Ferromagnetic Metal with a Quantum Critical Point?
# experiment_number = 1047
# command = scanrel s1 1 -1 0.1
# builtin_command = scan s1 @(s1)+1 @(s1)+-1 0.100000
# users = Aashish Sapkota, Benjamin Ueland, Dhurba Jaishi, Fei Li, Rob McQueeney, Tianxiong Han, Bing Li
# local_contact = A. Aczel
# scan_title = rocking (1 0 0), T = 0.325K, H = -0T, cooling
# monochromator = PG002
# analyzer = Pg002
# sense = +-+
# collimation = 40-40-40-80
# samplename = HoV6Sn6 crystal
# sampletype = crystal
# samplemosaic = 30.000000
# latticeconstants = 5.500888,5.500888,9.163669,90.000000,90.000000,120.000000
# ubmatrix = 0.113515,0.063136,0.091714,0.176568,0.085181,-0.058986,-0.000970,0.181165,-0.004228
# mode = 0
# plane_normal = 0.035087,-0.017067,0.999238
# ubconf = UB28Feb2025_100007PM.ini
# preset_type = normal 
# preset_channel = time
# preset_value = 2.000000
# def_x = s1
# def_y = detector
# col_headers = 
#   Pt.         s1       time   detector    monitor        mcu         m2      mag_i         s2        sgl        sgu   slitb_bt   slitb_lf   slitb_rt   slitb_tp   slita_bt   slita_lf   slita_rt   slita_tp        stl        stu         a1         a2          q          h          k          l         ei         ef          e        vti     sample       temp persistent_field dr_tsample    dr_temp
      1   -86.0924      2.000     14.000  43022.000      2.229    41.5367    -0.0000   -59.8902    -2.0107    -0.9782    25.0000     6.0000     6.0000    25.0000    25.0000     9.0000     7.0000    22.0000    -3.9970     0.0020    20.7314    41.4622     2.6387     2.0003    -0.0000     0.0677    14.4503    14.4999    -0.0497     1.7044     0.0000     1.0000     1.6000     0.3248     0.325
      2   -86.1925      2.000      7.000  42826.000      2.219    41.5367    -0.0000   -59.8902    -2.0107    -0.9782    25.0000     6.0000     6.0000    25.0000    25.0000     9.0000     7.0000    22.0000    -3.9970     0.0020    20.7314    41.4622     2.6387     2.0004    -0.0000     0.0610    14.4503    14.5000    -0.0497     1.7043     0.0000     1.0000     1.6000     0.3248     0.325
      3   -86.2924      2.000      7.000  42697.000      2.212    41.5367     0.0000   -59.8902    -2.0107    -0.9782    25.0000     6.0000     6.0000    25.0000    25.0000     9.0000     7.0000    22.0000    -3.9970     0.0020    20.7314    41.4622     2.6387     2.0004    -0.0000     0.0543    14.4503    14.5000    -0.0497     1.7043     0.0000     1.0000     1.6000     0.3248     0.325
      4   -86.3926      2.000      5.000  42727.000      2.214    41.5367    -0.0000   -59.8902    -2.0107    -0.9782    25.0000     6.0000     6.0000    25.0000    25.0000     9.0000     7.0000    22.0000    -3.9970     0.0020    20.7314    41.4622     2.6387     2.0005    -0.0000     0.0476    14.4503    14.5000    -0.0497     1.7043     0.0000     1.0000     1.6000     0.3248     0.325
      5   -86.4923      2.000      9.000  42485.000      2.201    41.5367     0.0000   -59.8902    -2.0107    -0.9782    25.0000     6.0000     6.0000    25.0000    25.0000     9.0000     7.0000    22.0000    -3.9970     0.0020    20.7314    41.4622     2.6387     2.0005    -0.0000     0.0409    14.4503    14.5000    -0.0497     1.7043     0.0000     1.0000     1.6000     0.3248     0.325
      6   -86.5919      2.000     11.000  42591.000      2.207    41.5367    -0.0000   -59.8902    -2.0107    -0.9782    25.0000     6.0000     6.0000    25.0000    25.0000     9.0000     7.0000    22.0000    -3.9970     0.0020    20.7314    41.4622     2.6387     2.0006    -0.0000     0.0342    14.4503    14.4999    -0.0497     1.7043     0.0000     1.0000     1.6000     0.3248     0.325
      7   -86.6920      2.000     15.000  42681.000      2.211    41.5367    -0.0000   -59.8902    -2.0107    -0.9782    25.0000     6.0000     6.0000    25.0000    25.0000     9.0000     7.0000    22.0000    -3.9970     0.0020    20.7314    41.4622     2.6387     2.0006    -0.0000     0.0274    14.4503    14.4999    -0.0497     1.7043     0.0000     1.0000     1.6000     0.3248     0.325
      8   -86.7928      2.000     32.000  43074.000      2.232    41.5367    -0.0000   -59.8902    -2.0107    -0.9782    25.0000     6.0000     6.0000    25.0000    25.0000     9.0000     7.0000    22.0000    -3.9970     0.0020    20.7314    41.4622     2.6387     2.0006    -0.0000     0.0207    14.4503    14.4999    -0.0497     1.7043     0.0000     1.0000     1.6000     0.3248     0.325
      9   -86.8929      2.000     92.000  42851.000      2.220    41.5367    -0.0000   -59.8902    -2.0107    -0.9782    25.0000     6.0000     6.0000    25.0000    25.0000     9.0000     7.0000    22.0000    -3.9970     0.0020    20.7314    41.4622     2.6387     2.0006    -0.0000     0.0140    14.4503    14.4999    -0.0497     1.7043     0.0000     1.0000     1.6000     0.3248     0.325
     10   -86.9927      2.000    229.000  43006.000      2.228    41.5367    -0.0000   -59.8902    -2.0107    -0.9782    25.0000     6.0000     6.0000    25.0000    25.0000     9.0000     7.0000    22.0000    -3.9970     0.0020    20.7314    41.4622     2.6387     2.0006    -0.0000     0.0073    14.4503    14.4999    -0.0497     1.7043     0.0000     1.0000     1.6000     0.3248     0.325
     11   -87.0921      2.000    306.000  42493.000      2.202    41.5367    -0.0000   -59.8902    -2.0107    -0.9782    25.0000     6.0000     6.0000    25.0000    25.0000     9.0000     7.0000    22.0000    -3.9970     0.0020    20.7314    41.4622     2.6387     2.0006    -0.0000     0.0006    14.4503    14.4999    -0.0496     1.7043     0.0000     1.0000     1.6000     0.3248     0.325
     12   -87.1925      2.000    262.000  42480.000      2.201    41.5367    -0.0000   -59.8902    -2.0107    -0.9782    25.0000     6.0000     6.0000    25.0000    25.0000     9.0000     7.0000    22.0000    -3.9970     0.0020    20.7314    41.4622     2.6387     2.0006    -0.0000    -0.0062    14.4503    14.4999    -0.0497     1.7043     0.0000     1.0000     1.6000     0.3248     0.325
     13   -87.2925      2.000    136.000  42565.000      2.205    41.5367    -0.0000   -59.8902    -2.0107    -0.9782    25.0000     6.0000     6.0000    25.0000    25.0000     9.0000     7.0000    22.0000    -3.9970     0.0020    20.7314    41.4622     2.6387     2.0006    -0.0000    -0.0129    14.4503    14.4999    -0.0497     1.7043     0.0000     1.0000     1.6000     0.3248     0.325
     14   -87.3926      2.000     38.000  42570.000      2.206    41.5367    -0.0000   -59.8902    -2.0107    -0.9782    25.0000     6.0000     6.0000    25.0000    25.0000     9.0000     7.0000    22.0000    -3.9970     0.0020    20.7314    41.4622     2.6387     2.0006    -0.0000    -0.0196    14.4503    14.5000    -0.0497     1.7043     0.0000     1.0000     1.6000     0.3248     0.325
     15   -87.4920      2.000     13.000  42726.000      2.214    41.5367     0.0001   -59.8902    -2.0107    -0.9782    25.0000     6.0000     6.0000    25.0000    25.0000     9.0000     7.0000    22.0000    -3.9970     0.0020    20.7314    41.4622     2.6387     2.0006    -0.0000    -0.0263    14.4503    14.4999    -0.0497     1.7043     0.0000     1.0000     1.6000     0.3248     0.325
     16   -87.5921      2.000     12.000  42332.000      2.193    41.5367    -0.0000   -59.8902    -2.0107    -0.9782    25.0000     6.0000     6.0000    25.0000    25.0000     9.0000     7.0000    22.0000    -3.9970     0.0020    20.7314    41.4622     2.6387     2.0006    -0.0000    -0.0330    14.4503    14.5000    -0.0497     1.7043     0.0000     1.0000     1.6000     0.3248     0.325
     17   -87.6919      2.000     12.000  42573.000      2.206    41.5367     0.0000   -59.8902    -2.0107    -0.9782    25.0000     6.0000     6.0000    25.0000    25.0000     9.0000     7.0000    22.0000    -3.9970     0.0020    20.7314    41.4622     2.6387     2.0005    -0.0000    -0.0397    14.4503    14.5000    -0.0497     1.7043     0.0000     1.0000     1.6000     0.3248     0.325
     18   -87.7925      2.000      4.000  43077.000      2.232    41.5367    -0.0000   -59.8902    -2.0107    -0.9782    25.0000     6.0000     6.0000    25.0000    25.0000     9.0000     7.0000    22.0000    -3.9970     0.0020    20.7314    41.4622     2.6387     2.0005    -0.0000    -0.0465    14.4503    14.5000    -0.0497     1.7044     0.0000     1.0000     1.6000     0.3252     0.325
     19   -87.8928      2.000      8.000  42791.000      2.217    41.5367     0.0001   -59.8902    -2.0107    -0.9782    25.0000     6.0000     6.0000    25.0000    25.0000     9.0000     7.0000    22.0000    -3.9970     0.0020    20.7314    41.4622     2.6387     2.0004    -0.0000    -0.0532    14.4503    14.4999    -0.0496     1.7043     0.0000     1.0000     1.6000     0.3252     0.325
     20   -87.9928      2.000     11.000  42608.000      2.208    41.5367    -0.0000   -59.8902    -2.0107    -0.9782    25.0000     6.0000     6.0000    25.0000    25.0000     9.0000     7.0000    22.0000    -3.9970     0.0020    20.7314    41.4622     2.6387     2.0004    -0.0000    -0.0599    14.4503    14.5000    -0.0497     1.7043     0.0000     1.0000     1.6000     0.3252     0.325
     21   -88.0926      2.000      7.000  42866.000      2.221    41.5367    -0.0000   -59.8902    -2.0107    -0.9782    25.0000     6.0000     6.0000    25.0000    25.0000     9.0000     7.0000    22.0000    -3.9970     0.0020    20.7314    41.4622     2.6387     2.0003    -0.0000    -0.0666    14.4503    14.4999    -0.0497     1.7044     0.0000     1.0000     1.6000     0.3252     0.325
# Sum of Counts = 1230
# Center of Mass = -87.102292+/-3.512312
# Full Width Half-Maximum = 0.533664+/-1.200474
# 1:51:06 PM  3/2/2025   scan completed.
