# scan = 26
# date = 6/30/2021
# time = 2:19:25 PM
# proposal = 26411
# experiment = Phonon Dispersion and Linewidths in Zr-doped UO2
# experiment_number = 710
# command = scan bbl 0 20 2
# builtin_command = scan bbl 0 20 2
# users = Matt Bryan, Hao Ma, Michael Manley
# local_contact = Songxue Chi
# scan_title = slit scans
# monochromator = PG002
# analyzer = Pg002
# sense = -+-
# collimation = 48-20-40-90
# samplename = Zr-doped UO2
# sampletype = crystal
# samplemosaic = 30.000000
# latticeconstants = 5.456668,5.456668,5.456668,90.000000,90.000000,90.000000
# ubmatrix = -0.127684,-0.131176,-0.008650,0.001105,0.010987,-0.182929,0.131456,-0.127504,-0.006864
# mode = 0
# plane_normal = 0.013473,-0.038127,0.999182
# ubconf = UB30Jun2021_12447PM.ini
# preset_type = normal 
# preset_channel = mcu
# preset_value = 1.000000
# def_x = bbl
# def_y = detector
# col_headers = 
#   Pt.        bbl       time   detector    monitor        mcu focal_length         m1         m2   mcrystal       marc     mtrans     mfocus         s1         s2        sgl        sgu        bbb        bbr        bbt        bab        bal        bar        bat        stl        stu         a1         a2          q          h          k          l         ei         ef          e active_output e-stop_status flow_status  over_temp furnace_rate sample_temp furnace_sp     vacuum vacuum_status working_sp
      1     0.0000      1.037   2309.000   1965.000      1.001    66.7975   -22.0860   -41.1659   120.1313     0.8294    -2.0000   -34.2897   -61.6785    51.2312    -0.7712    -2.1845    30.0000    20.0000    30.0000    30.0000    20.0000    20.0000    30.0000     0.0000    -0.0100   159.4167   -41.1662     2.3030     0.0000    -0.0000     2.0001    14.7002    14.7000     0.0002     0.0000     0.0000     0.0000    31.5211     5.0000    32.3386    30.0000     0.0000     0.0000    30.000
      2     2.0000      0.986   2276.000   1965.000      1.001    66.7975   -22.0860   -41.1659   120.1313     0.8294    -2.0000   -34.2897   -61.6785    51.2312    -0.7712    -2.1845    30.0000    20.0000    30.0000    30.0000    20.0000    20.0000    30.0000     0.0000    -0.0100   159.4167   -41.1662     2.3030     0.0000    -0.0000     2.0001    14.7002    14.7000     0.0002     0.0000     0.0000     0.0000    31.5109     5.0000    32.3205    30.0000     0.0000     0.0000    30.000
      3     4.0000      1.005   2298.000   1965.000      1.001    66.7975   -22.0860   -41.1659   120.1313     0.8294    -2.0000   -34.2897   -61.6785    51.2312    -0.7712    -2.1845    30.0000    20.0000    30.0000    30.0000    20.0000    20.0000    30.0000     0.0000    -0.0100   159.4167   -41.1662     2.3030     0.0000    -0.0000     2.0001    14.7002    14.7000     0.0002     0.0000     0.0000     0.0000    31.5048     5.0000    32.3151    30.0000     0.0000     0.0000    30.000
      4     6.0000      0.993   2315.000   1965.000      1.001    66.7975   -22.0860   -41.1659   120.1313     0.8294    -2.0000   -34.2897   -61.6785    51.2312    -0.7712    -2.1845    30.0000    20.0000    30.0000    30.0000    20.0000    20.0000    30.0000     0.0000    -0.0100   159.4167   -41.1662     2.3030     0.0000    -0.0000     2.0001    14.7002    14.7000     0.0002     0.0000     0.0000     0.0000    31.4981     5.0000    32.3216    30.0000     0.0000     0.0000    30.000
      5     8.0000      0.974   2241.000   1965.000      1.001    66.7975   -22.0860   -41.1659   120.1313     0.8294    -2.0000   -34.2897   -61.6785    51.2312    -0.7712    -2.1845    30.0000    20.0000    30.0000    30.0000    20.0000    20.0000    30.0000     0.0000    -0.0100   159.4167   -41.1662     2.3030     0.0000    -0.0000     2.0001    14.7002    14.7000     0.0002     0.0000     0.0000     0.0000    31.4896     5.0000    32.3051    30.0000     0.0000     0.0000    30.000
      6    10.0000      1.006   2425.000   1965.000      1.001    66.7975   -22.0860   -41.1659   120.1313     0.8294    -2.0000   -34.2897   -61.6785    51.2312    -0.7712    -2.1845    30.0000    20.0000    30.0000    30.0000    20.0000    20.0000    30.0000     0.0000    -0.0100   159.4167   -41.1662     2.3030     0.0000    -0.0000     2.0001    14.7002    14.7000     0.0002     0.0000     0.0000     0.0000    31.4848     5.0000    32.2974    30.0000     0.0000     0.0000    30.000
      7    12.0000      1.019   2345.000   1965.000      1.001    66.7975   -22.0860   -41.1659   120.1313     0.8294    -2.0000   -34.2897   -61.6785    51.2312    -0.7712    -2.1845    30.0000    20.0000    30.0000    30.0000    20.0000    20.0000    30.0000     0.0000    -0.0100   159.4167   -41.1662     2.3030     0.0000    -0.0000     2.0001    14.7002    14.7000     0.0002     0.0000     0.0000     0.0000    31.4827     5.0000    32.2921    30.0000     0.0000     0.0000    30.000
      8    14.0000      0.999   2372.000   1965.000      1.001    66.7975   -22.0860   -41.1659   120.1313     0.8294    -2.0000   -34.2897   -61.6785    51.2312    -0.7712    -2.1845    30.0000    20.0000    30.0000    30.0000    20.0000    20.0000    30.0000     0.0000    -0.0100   159.4167   -41.1662     2.3030     0.0000    -0.0000     2.0001    14.7002    14.7000     0.0002     0.0000     0.0000     0.0000    31.4829     5.0000    32.2874    30.0000     0.0000     0.0000    30.000
      9    16.0000      0.965   2244.000   1965.000      1.001    66.7975   -22.0860   -41.1659   120.1313     0.8294    -2.0000   -34.2897   -61.6785    51.2312    -0.7712    -2.1845    30.0000    20.0000    30.0000    30.0000    20.0000    20.0000    30.0000     0.0000    -0.0100   159.4167   -41.1662     2.3030     0.0000    -0.0000     2.0001    14.7002    14.7000     0.0002     0.0000     0.0000     0.0000    31.4824     5.0000    32.2767    30.0000     0.0000     0.0000    30.000
     10    18.0000      0.999   2321.000   1965.000      1.001    66.7975   -22.0860   -41.1659   120.1313     0.8294    -2.0000   -34.2897   -61.6785    51.2312    -0.7712    -2.1845    30.0000    20.0000    30.0000    30.0000    20.0000    20.0000    30.0000     0.0000    -0.0100   159.4167   -41.1662     2.3030     0.0000    -0.0000     2.0001    14.7002    14.7000     0.0002     0.0000     0.0000     0.0000    31.4816     5.0000    32.2773    30.0000     0.0000     0.0000    30.000
     11    20.0000      0.993   2289.000   1965.000      1.001    66.7975   -22.0860   -41.1659   120.1313     0.8294    -2.0000   -34.2897   -61.6785    51.2312    -0.7712    -2.1845    30.0000    20.0000    30.0000    30.0000    20.0000    20.0000    30.0000     0.0000    -0.0100   159.4167   -41.1662     2.3030     0.0000    -0.0000     2.0001    14.7002    14.7000     0.0002     0.0000     0.0000     0.0000    31.4593     5.0000    32.2768    30.0000     0.0000     0.0000    30.000
# Sum of Counts = 25435
# Center of Mass = 10.010694+/-0.097173
# Full Width Half-Maximum = 12.608347+/-0.088168
# 2:20:54 PM  6/30/2021   scan completed.
