# scan = 23
# date = 6/30/2021
# time = 2:13:29 PM
# proposal = 26411
# experiment = Phonon Dispersion and Linewidths in Zr-doped UO2
# experiment_number = 710
# command = scan bar 0 20 2
# builtin_command = scan bar 0 20 2
# users = Matt Bryan, Hao Ma, Michael Manley
# local_contact = Songxue Chi
# scan_title = slit scans
# monochromator = PG002
# analyzer = Pg002
# sense = -+-
# collimation = 48-20-40-90
# samplename = Zr-doped UO2
# sampletype = crystal
# samplemosaic = 30.000000
# latticeconstants = 5.456668,5.456668,5.456668,90.000000,90.000000,90.000000
# ubmatrix = -0.127684,-0.131176,-0.008650,0.001105,0.010987,-0.182929,0.131456,-0.127504,-0.006864
# mode = 0
# plane_normal = 0.013473,-0.038127,0.999182
# ubconf = UB30Jun2021_12447PM.ini
# preset_type = normal 
# preset_channel = mcu
# preset_value = 1.000000
# def_x = bar
# def_y = detector
# col_headers = 
#   Pt.        bar       time   detector    monitor        mcu focal_length         m1         m2   mcrystal       marc     mtrans     mfocus         s1         s2        sgl        sgu        bbb        bbl        bbr        bbt        bab        bal        bat        stl        stu         a1         a2          q          h          k          l         ei         ef          e active_output e-stop_status flow_status  over_temp furnace_rate sample_temp furnace_sp     vacuum vacuum_status working_sp
      1     0.0000      1.023   1308.000   1965.000      1.001    66.7975   -22.0860   -41.1659   120.1313     0.8294    -2.0000   -34.2897   -61.6785    51.2312    -0.7712    -2.1845    30.0000    20.0000    20.0000    30.0000    30.0000    20.0000    30.0000     0.0000    -0.0100   159.4167   -41.1662     2.3030     0.0000    -0.0000     2.0001    14.7002    14.7000     0.0002     0.0000     0.0000     0.0000    31.8935     5.0000    32.7162    30.0000     0.0000     0.0000    30.000
      2     2.0000      0.998   2147.000   1965.000      1.001    66.7975   -22.0860   -41.1659   120.1313     0.8294    -2.0000   -34.2897   -61.6785    51.2312    -0.7712    -2.1845    30.0000    20.0000    20.0000    30.0000    30.0000    20.0000    30.0000     0.0000    -0.0100   159.4167   -41.1662     2.3030     0.0000    -0.0000     2.0001    14.7002    14.7000     0.0002     0.0000     0.0000     0.0000    31.8802     5.0000    32.7047    30.0000     0.0000     0.0000    30.000
      3     4.0000      1.003   2271.000   1965.000      1.001    66.7975   -22.0860   -41.1659   120.1313     0.8294    -2.0000   -34.2897   -61.6785    51.2312    -0.7712    -2.1845    30.0000    20.0000    20.0000    30.0000    30.0000    20.0000    30.0000     0.0000    -0.0100   159.4167   -41.1662     2.3030     0.0000    -0.0000     2.0001    14.7002    14.7000     0.0002     0.0000     0.0000     0.0000    31.8798     5.0000    32.7107    30.0000     0.0000     0.0000    30.000
      4     6.0000      1.003   2363.000   1965.000      1.001    66.7975   -22.0860   -41.1659   120.1313     0.8294    -2.0000   -34.2897   -61.6785    51.2312    -0.7712    -2.1845    30.0000    20.0000    20.0000    30.0000    30.0000    20.0000    30.0000     0.0000    -0.0100   159.4167   -41.1662     2.3030     0.0000    -0.0000     2.0001    14.7002    14.7000     0.0002     0.0000     0.0000     0.0000    31.8770     5.0000    32.6976    30.0000     0.0000     0.0000    30.000
      5     8.0000      1.002   2263.000   1965.000      1.001    66.7975   -22.0860   -41.1659   120.1313     0.8294    -2.0000   -34.2897   -61.6785    51.2312    -0.7712    -2.1845    30.0000    20.0000    20.0000    30.0000    30.0000    20.0000    30.0000     0.0000    -0.0100   159.4167   -41.1662     2.3030     0.0000    -0.0000     2.0001    14.7002    14.7000     0.0002     0.0000     0.0000     0.0000    31.8778     5.0000    32.6956    30.0000     0.0000     0.0000    30.000
      6    10.0000      1.001   2371.000   1965.000      1.001    66.7975   -22.0860   -41.1659   120.1313     0.8294    -2.0000   -34.2897   -61.6785    51.2312    -0.7712    -2.1845    30.0000    20.0000    20.0000    30.0000    30.0000    20.0000    30.0000     0.0000    -0.0100   159.4167   -41.1662     2.3030     0.0000    -0.0000     2.0001    14.7002    14.7000     0.0002     0.0000     0.0000     0.0000    31.8737     5.0000    32.6786    30.0000     0.0000     0.0000    30.000
      7    12.0000      0.993   2321.000   1965.000      1.001    66.7975   -22.0860   -41.1659   120.1313     0.8294    -2.0000   -34.2897   -61.6785    51.2312    -0.7712    -2.1845    30.0000    20.0000    20.0000    30.0000    30.0000    20.0000    30.0000     0.0000    -0.0100   159.4167   -41.1662     2.3030     0.0000    -0.0000     2.0001    14.7002    14.7000     0.0002     0.0000     0.0000     0.0000    31.8659     5.0000    32.6723    30.0000     0.0000     0.0000    30.000
      8    14.0000      0.991   2354.000   1965.000      1.001    66.7975   -22.0860   -41.1659   120.1313     0.8294    -2.0000   -34.2897   -61.6785    51.2312    -0.7712    -2.1845    30.0000    20.0000    20.0000    30.0000    30.0000    20.0000    30.0000     0.0000    -0.0100   159.4167   -41.1662     2.3030     0.0000    -0.0000     2.0001    14.7002    14.7000     0.0002     0.0000     0.0000     0.0000    31.8593     5.0000    32.6723    30.0000     0.0000     0.0000    30.000
      9    16.0000      0.994   2266.000   1965.000      1.001    66.7975   -22.0860   -41.1659   120.1313     0.8294    -2.0000   -34.2897   -61.6785    51.2312    -0.7712    -2.1845    30.0000    20.0000    20.0000    30.0000    30.0000    20.0000    30.0000     0.0000    -0.0100   159.4167   -41.1662     2.3030     0.0000    -0.0000     2.0001    14.7002    14.7000     0.0002     0.0000     0.0000     0.0000    31.8534     5.0000    32.6539    30.0000     0.0000     0.0000    30.000
     10    18.0000      1.017   2398.000   1965.000      1.001    66.7975   -22.0860   -41.1659   120.1313     0.8294    -2.0000   -34.2897   -61.6785    51.2312    -0.7712    -2.1845    30.0000    20.0000    20.0000    30.0000    30.0000    20.0000    30.0000     0.0000    -0.0100   159.4167   -41.1662     2.3030     0.0000    -0.0000     2.0001    14.7002    14.7000     0.0002     0.0000     0.0000     0.0000    31.8337     5.0000    32.6567    30.0000     0.0000     0.0000    30.000
     11    20.0000      1.009   2367.000   1965.000      1.001    66.7975   -22.0860   -41.1659   120.1313     0.8294    -2.0000   -34.2897   -61.6785    51.2312    -0.7712    -2.1845    30.0000    20.0000    20.0000    30.0000    30.0000    20.0000    30.0000     0.0000    -0.0100   159.4167   -41.1662     2.3030     0.0000    -0.0000     2.0001    14.7002    14.7000     0.0002     0.0000     0.0000     0.0000    31.8164     5.0000    32.6437    30.0000     0.0000     0.0000    30.000
# Sum of Counts = 24429
# Center of Mass = 10.517745+/-0.102858
# Full Width Half-Maximum = 12.199788+/-0.089501
# 2:14:59 PM  6/30/2021   scan completed.
