# scan = 27
# date = 6/30/2021
# time = 2:20:54 PM
# proposal = 26411
# experiment = Phonon Dispersion and Linewidths in Zr-doped UO2
# experiment_number = 710
# command = scan bbr 0 20 2
# builtin_command = scan bbr 0 20 2
# users = Matt Bryan, Hao Ma, Michael Manley
# local_contact = Songxue Chi
# scan_title = slit scans
# monochromator = PG002
# analyzer = Pg002
# sense = -+-
# collimation = 48-20-40-90
# samplename = Zr-doped UO2
# sampletype = crystal
# samplemosaic = 30.000000
# latticeconstants = 5.456668,5.456668,5.456668,90.000000,90.000000,90.000000
# ubmatrix = -0.127684,-0.131176,-0.008650,0.001105,0.010987,-0.182929,0.131456,-0.127504,-0.006864
# mode = 0
# plane_normal = 0.013473,-0.038127,0.999182
# ubconf = UB30Jun2021_12447PM.ini
# preset_type = normal 
# preset_channel = mcu
# preset_value = 1.000000
# def_x = bbr
# def_y = detector
# col_headers = 
#   Pt.        bbr       time   detector    monitor        mcu focal_length         m1         m2   mcrystal       marc     mtrans     mfocus         s1         s2        sgl        sgu        bbb        bbl        bbt        bab        bal        bar        bat        stl        stu         a1         a2          q          h          k          l         ei         ef          e active_output e-stop_status flow_status  over_temp furnace_rate sample_temp furnace_sp     vacuum vacuum_status working_sp
      1     0.0000      0.965   1188.000   1965.000      1.001    66.7975   -22.0860   -41.1659   120.1313     0.8294    -2.0000   -34.2897   -61.6785    51.2312    -0.7712    -2.1845    30.0000    20.0000    30.0000    30.0000    20.0000    20.0000    30.0000     0.0000    -0.0100   159.4167   -41.1662     2.3030     0.0000    -0.0000     2.0001    14.7002    14.7000     0.0002     0.0000     0.0000     0.0000    31.4153     5.0000    32.2448    30.0000     0.0000     0.0000    30.000
      2     2.0000      1.011   2083.000   1965.000      1.001    66.7975   -22.0860   -41.1659   120.1313     0.8294    -2.0000   -34.2897   -61.6785    51.2312    -0.7712    -2.1845    30.0000    20.0000    30.0000    30.0000    20.0000    20.0000    30.0000     0.0000    -0.0100   159.4167   -41.1662     2.3030     0.0000    -0.0000     2.0001    14.7002    14.7000     0.0002     0.0000     0.0000     0.0000    31.4115     5.0000    32.2355    30.0000     0.0000     0.0000    30.000
      3     4.0000      1.000   2340.000   1965.000      1.001    66.7975   -22.0860   -41.1659   120.1313     0.8294    -2.0000   -34.2897   -61.6785    51.2312    -0.7712    -2.1845    30.0000    20.0000    30.0000    30.0000    20.0000    20.0000    30.0000     0.0000    -0.0100   159.4167   -41.1662     2.3030     0.0000    -0.0000     2.0001    14.7002    14.7000     0.0002     0.0000     0.0000     0.0000    31.4149     5.0000    32.2308    30.0000     0.0000     0.0000    30.000
      4     6.0000      1.016   2458.000   1965.000      1.001    66.7975   -22.0860   -41.1659   120.1313     0.8294    -2.0000   -34.2897   -61.6785    51.2312    -0.7712    -2.1845    30.0000    20.0000    30.0000    30.0000    20.0000    20.0000    30.0000     0.0000    -0.0100   159.4167   -41.1662     2.3030     0.0000    -0.0000     2.0001    14.7002    14.7000     0.0002     0.0000     0.0000     0.0000    31.4050     5.0000    32.2226    30.0000     0.0000     0.0000    30.000
      5     8.0000      1.016   2410.000   1965.000      1.001    66.7975   -22.0860   -41.1659   120.1313     0.8294    -2.0000   -34.2897   -61.6785    51.2312    -0.7712    -2.1845    30.0000    20.0000    30.0000    30.0000    20.0000    20.0000    30.0000     0.0000    -0.0100   159.4167   -41.1662     2.3030     0.0000    -0.0000     2.0001    14.7002    14.7000     0.0002     0.0000     0.0000     0.0000    31.4044     5.0000    32.2120    30.0000     0.0000     0.0000    30.000
      6    10.0000      0.960   2238.000   1965.000      1.001    66.7975   -22.0860   -41.1659   120.1313     0.8294    -2.0000   -34.2897   -61.6785    51.2312    -0.7712    -2.1845    30.0000    20.0000    30.0000    30.0000    20.0000    20.0000    30.0000     0.0000    -0.0100   159.4167   -41.1662     2.3030     0.0000    -0.0000     2.0001    14.7002    14.7000     0.0002     0.0000     0.0000     0.0000    31.4033     5.0000    32.2039    30.0000     0.0000     0.0000    30.000
      7    12.0000      1.022   2472.000   1965.000      1.001    66.7975   -22.0860   -41.1659   120.1313     0.8294    -2.0000   -34.2897   -61.6785    51.2312    -0.7712    -2.1845    30.0000    20.0000    30.0000    30.0000    20.0000    20.0000    30.0000     0.0000    -0.0100   159.4167   -41.1662     2.3030     0.0000    -0.0000     2.0001    14.7002    14.7000     0.0002     0.0000     0.0000     0.0000    31.3927     5.0000    32.2036    30.0000     0.0000     0.0000    30.000
      8    14.0000      1.004   2376.000   1965.000      1.001    66.7975   -22.0860   -41.1659   120.1313     0.8294    -2.0000   -34.2897   -61.6785    51.2312    -0.7712    -2.1845    30.0000    20.0000    30.0000    30.0000    20.0000    20.0000    30.0000     0.0000    -0.0100   159.4167   -41.1662     2.3030     0.0000    -0.0000     2.0001    14.7002    14.7000     0.0002     0.0000     0.0000     0.0000    31.3934     5.0000    32.2046    30.0000     0.0000     0.0000    30.000
      9    16.0000      0.993   2427.000   1965.000      1.001    66.7975   -22.0860   -41.1659   120.1313     0.8294    -2.0000   -34.2897   -61.6785    51.2312    -0.7712    -2.1845    30.0000    20.0000    30.0000    30.0000    20.0000    20.0000    30.0000     0.0000    -0.0100   159.4167   -41.1662     2.3030     0.0000    -0.0000     2.0001    14.7002    14.7000     0.0002     0.0000     0.0000     0.0000    31.3818     5.0000    32.1992    30.0000     0.0000     0.0000    30.000
     10    18.0000      1.010   2363.000   1965.000      1.001    66.7975   -22.0860   -41.1659   120.1313     0.8294    -2.0000   -34.2897   -61.6785    51.2312    -0.7712    -2.1845    30.0000    20.0000    30.0000    30.0000    20.0000    20.0000    30.0000     0.0000    -0.0100   159.4167   -41.1662     2.3030     0.0000    -0.0000     2.0001    14.7002    14.7000     0.0002     0.0000     0.0000     0.0000    31.3831     5.0000    32.1748    30.0000     0.0000     0.0000    30.000
     11    20.0000      0.975   2234.000   1965.000      1.001    66.7975   -22.0860   -41.1659   120.1313     0.8294    -2.0000   -34.2897   -61.6785    51.2312    -0.7712    -2.1845    30.0000    20.0000    30.0000    30.0000    20.0000    20.0000    30.0000     0.0000    -0.0100   159.4167   -41.1662     2.3030     0.0000    -0.0000     2.0001    14.7002    14.7000     0.0002     0.0000     0.0000     0.0000    31.3644     5.0000    32.1782    30.0000     0.0000     0.0000    30.000
# Sum of Counts = 24589
# Center of Mass = 10.529424+/-0.102406
# Full Width Half-Maximum = 12.021210+/-0.088229
# 2:22:27 PM  6/30/2021   scan completed.
